PresOrder,TrialNumber,Far_Close,Hallway,Perspective,Phase,Catch_Trial,Response,Response_Time
1,22,1,1,1,1,1,1,NaN
2,54,1,1,2,1,1,1,NaN
3,18,1,1,2,1,1,1,NaN
4,98,1,1,1,1,1,1,NaN
5,17,2,2,1,2,1,1,NaN
6,91,2,1,2,2,1,1,NaN
7,14,1,1,1,1,1,1,NaN
8,104,2,1,1,2,1,1,NaN
9,107,1,1,1,1,1,1,NaN
10,58,1,1,2,1,1,1,NaN
11,97,2,2,1,2,1,1,NaN
12,1,1,1,1,1,1,1,NaN
13,12,1,2,1,1,1,1,NaN
14,93,2,2,1,2,1,1,NaN
15,53,2,2,1,2,1,1,NaN
16,23,2,1,2,2,1,1,NaN
17,99,2,1,1,2,1,1,NaN
18,20,1,2,1,1,1,1,NaN
19,5,2,2,2,2,1,1,NaN
20,15,2,1,1,2,1,1,NaN
21,76,1,2,2,1,1,1,NaN
22,68,2,2,2,2,1,1,NaN
23,55,2,1,2,2,1,1,NaN
24,24,1,2,1,1,2,1,0.682973218406005
25,8,1,2,2,1,1,1,NaN
26,90,1,1,2,1,1,1,NaN
27,106,2,2,1,2,1,1,NaN
28,48,1,2,2,1,1,1,NaN
29,33,1,1,1,1,1,1,NaN
30,31,1,2,2,1,1,1,NaN
31,3,1,2,2,1,1,1,NaN
32,67,2,1,1,2,2,1,0.431951199454488
33,80,1,2,2,1,1,1,NaN
34,65,2,1,2,2,1,1,NaN
35,21,2,2,1,2,1,1,NaN
36,66,1,2,2,1,1,1,NaN
37,69,1,1,2,1,1,1,NaN
38,2,2,1,2,2,1,1,NaN
39,100,1,2,1,1,1,1,NaN
40,94,1,1,1,1,1,1,NaN
41,39,1,2,2,1,1,1,NaN
42,73,2,2,2,2,1,1,NaN
43,60,2,2,2,2,2,1,0.468090093944738
44,37,1,1,1,1,1,1,NaN
45,56,1,2,2,1,1,1,NaN
46,79,2,1,1,2,1,1,NaN
47,63,2,2,2,2,1,1,NaN
48,7,2,1,1,2,1,1,NaN
49,50,1,1,2,1,1,1,NaN
50,62,1,2,2,1,1,1,NaN
51,86,1,1,1,1,1,1,NaN
52,59,1,1,2,1,2,1,0.45105824944676
53,88,1,2,1,1,1,1,NaN
54,9,2,2,1,2,1,1,NaN
55,49,2,2,2,2,1,1,NaN
56,83,2,1,2,2,1,1,NaN
57,64,1,1,2,1,1,1,NaN
58,78,1,1,2,1,1,1,NaN
59,101,2,2,2,2,1,1,NaN
60,6,1,1,2,1,1,1,NaN
61,19,2,1,1,2,1,1,NaN
62,75,2,1,1,2,1,1,NaN
63,13,2,2,2,2,1,1,NaN
64,70,2,1,1,2,1,1,NaN
65,74,1,1,2,1,1,1,NaN
66,10,1,1,2,1,1,1,NaN
67,29,1,1,2,1,1,1,NaN
68,52,1,2,2,1,1,1,NaN
69,36,2,2,2,2,1,1,NaN
70,42,1,1,1,1,2,1,0.490780977877876
71,34,2,1,2,2,1,1,NaN
72,89,2,2,1,2,1,1,NaN
73,84,1,2,1,1,1,1,NaN
74,26,1,2,2,1,2,1,0.692786765977871
75,44,1,2,1,1,1,1,NaN
76,102,1,1,2,1,2,1,0.386892813630766
77,30,2,1,1,2,1,1,NaN
78,47,2,1,1,2,1,1,NaN
79,61,2,1,1,2,1,1,NaN
80,4,2,1,2,2,2,1,0.294192204824867
81,46,1,1,2,1,1,1,NaN
82,77,2,2,1,2,1,1,NaN
83,11,2,1,1,2,1,1,NaN
84,92,1,2,1,1,1,1,NaN
85,105,1,2,2,1,1,1,NaN
86,45,2,2,2,2,1,1,NaN
87,25,1,2,1,1,1,1,NaN
88,43,2,1,1,2,1,1,NaN
89,82,1,1,1,1,1,1,NaN
90,95,2,1,2,2,1,1,NaN
91,81,2,2,2,2,1,1,NaN
92,108,2,1,1,2,1,1,NaN
93,110,2,2,1,2,1,1,NaN
94,103,1,1,1,1,1,1,NaN
95,32,2,2,2,2,1,1,NaN
96,87,2,1,2,2,1,1,NaN
97,72,2,2,1,2,2,1,0.698619056245661
98,41,1,1,2,1,1,1,NaN
99,27,2,2,2,2,1,1,NaN
100,40,2,2,2,2,1,1,NaN
101,57,2,2,2,2,1,1,NaN
102,28,2,1,1,2,2,1,0.409593647781548
103,85,2,2,2,2,1,1,NaN
104,38,2,1,2,2,1,1,NaN
105,71,1,2,2,1,1,1,NaN
106,35,1,2,2,1,1,1,NaN
107,16,1,2,2,1,1,1,NaN
108,51,2,1,2,2,1,1,NaN
109,109,1,2,1,1,1,1,NaN
110,96,1,2,1,1,1,1,NaN
111,194,1,1,1,1,1,1,NaN
112,129,2,1,1,2,1,1,NaN
113,197,2,2,1,2,1,1,NaN
114,115,1,1,1,1,1,1,NaN
115,212,2,1,1,2,1,1,NaN
116,155,1,1,2,1,1,1,NaN
117,156,2,1,2,2,1,1,NaN
118,134,1,2,1,1,1,1,NaN
119,189,2,2,1,2,1,1,NaN
120,124,1,1,1,1,1,1,NaN
121,198,1,1,1,1,1,1,NaN
122,179,1,2,2,1,1,1,NaN
123,201,2,2,1,2,1,1,NaN
124,216,2,1,1,2,1,1,NaN
125,152,1,2,1,1,1,1,NaN
126,132,1,1,1,1,1,1,NaN
127,195,2,1,2,2,1,1,NaN
128,131,2,2,2,2,1,1,NaN
129,145,2,2,1,2,1,1,NaN
130,162,2,2,1,2,1,1,NaN
131,177,1,1,1,1,1,1,NaN
132,164,1,1,1,1,1,1,NaN
133,160,2,1,2,2,1,1,NaN
134,120,2,1,1,2,1,1,NaN
135,209,1,2,1,1,1,1,NaN
136,112,2,1,1,2,1,1,NaN
137,147,2,1,1,2,1,1,NaN
138,190,1,1,2,1,1,1,NaN
139,118,2,2,1,2,1,1,NaN
140,196,1,2,1,1,1,1,NaN
141,144,1,2,2,1,1,1,NaN
142,171,2,2,2,2,1,1,NaN
143,146,1,1,1,1,1,1,NaN
144,200,1,2,2,1,1,1,NaN
145,176,2,2,2,2,1,1,NaN
146,192,1,2,2,1,1,1,NaN
147,141,2,2,2,2,1,1,NaN
148,199,2,1,1,2,1,1,NaN
149,161,1,2,1,1,1,1,NaN
150,202,1,1,1,1,1,1,NaN
151,138,1,1,1,1,1,1,NaN
152,213,1,2,1,1,1,1,NaN
153,116,2,1,1,2,1,1,NaN
154,169,2,1,1,2,1,1,NaN
155,215,1,1,2,1,1,1,NaN
156,205,2,2,2,2,1,1,NaN
157,175,1,2,2,1,1,1,NaN
158,207,1,1,1,1,1,1,NaN
159,148,1,2,1,1,1,1,NaN
160,126,1,2,2,1,1,1,NaN
161,210,2,2,1,2,1,1,NaN
162,208,2,1,1,2,1,1,NaN
163,217,1,2,1,1,2,1,0.686341952074145
164,191,2,1,2,2,1,1,NaN
165,182,1,1,1,1,1,1,NaN
166,128,1,1,2,1,1,1,NaN
167,204,1,2,1,1,1,1,NaN
168,127,2,2,2,2,1,1,NaN
169,119,1,1,2,1,1,1,NaN
170,220,1,1,1,1,2,1,0.535995347981043
171,214,2,2,2,2,1,1,NaN
172,137,2,1,2,2,2,1,0.324068315846489
173,157,1,2,2,1,1,1,NaN
174,180,2,2,1,2,1,1,NaN
175,135,2,2,1,2,1,1,NaN
176,206,2,2,1,2,2,1,0.335317035854132
177,203,2,1,1,2,1,1,NaN
178,125,2,1,2,2,1,1,NaN
179,184,1,2,1,1,1,1,NaN
180,153,2,2,2,2,1,1,NaN
181,139,2,1,2,2,1,1,NaN
182,219,2,2,2,2,1,1,NaN
183,111,1,1,2,1,1,1,NaN
184,211,1,1,2,1,1,1,NaN
185,178,2,1,2,2,1,1,NaN
186,142,1,1,2,1,1,1,NaN
187,166,1,2,1,1,1,1,NaN
188,218,1,2,1,1,1,1,NaN
189,151,2,1,1,2,1,1,NaN
190,123,2,2,1,2,1,1,NaN
191,185,2,2,1,2,1,1,NaN
192,174,1,2,1,1,2,1,0.492796482071753
193,133,2,1,1,2,1,1,NaN
194,193,2,2,2,2,1,1,NaN
195,140,1,2,2,1,1,1,NaN
196,117,1,2,1,1,1,1,NaN
197,170,1,2,1,1,1,1,NaN
198,187,2,1,1,2,1,1,NaN
199,167,2,2,1,2,1,1,NaN
200,188,1,2,2,1,1,1,NaN
201,165,2,1,1,2,1,1,NaN
202,183,2,1,1,2,1,1,NaN
203,158,2,2,1,2,1,1,NaN
204,168,1,1,2,1,1,1,NaN
205,150,1,1,1,1,1,1,NaN
206,159,1,1,1,1,1,1,NaN
207,114,2,2,2,2,1,1,NaN
208,121,1,1,1,1,2,1,0.790535353851737
209,130,1,2,1,1,1,1,NaN
210,173,2,1,2,2,1,1,NaN
211,186,1,1,1,1,1,1,NaN
212,154,2,2,2,2,2,1,0.598168399223141
213,163,1,2,2,1,2,1,0.439044533365632
214,149,2,2,1,2,1,1,NaN
215,113,1,2,2,1,1,1,NaN
216,172,1,1,1,1,1,1,NaN
217,181,2,2,2,2,2,1,0.421593023844252
218,122,1,2,2,1,1,1,NaN
219,136,2,1,2,2,2,1,0.319163444309197
220,143,2,1,1,2,1,1,NaN
221,278,2,2,2,2,1,1,NaN
222,284,2,1,2,2,1,1,NaN
223,221,1,1,2,1,1,1,NaN
224,323,1,1,1,1,1,1,NaN
225,264,2,2,2,2,1,1,NaN
226,287,1,1,1,1,2,1,0.650733638259226
227,306,1,1,1,1,1,1,NaN
228,309,2,2,1,2,1,1,NaN
229,265,1,1,1,1,1,1,NaN
230,239,1,1,2,1,1,1,NaN
231,242,1,2,1,1,1,1,NaN
232,254,2,1,1,2,1,1,NaN
233,280,2,1,2,2,1,1,NaN
234,329,1,2,2,1,1,1,NaN
235,249,1,1,2,1,1,1,NaN
236,296,2,2,1,2,1,1,NaN
237,260,2,2,1,2,1,1,NaN
238,232,2,2,2,2,1,1,NaN
239,297,1,1,1,1,1,1,NaN
240,312,1,2,1,1,1,1,NaN
241,314,1,1,1,1,1,1,NaN
242,295,1,2,1,1,1,1,NaN
243,238,2,2,1,2,1,1,NaN
244,245,1,1,1,1,1,1,NaN
245,279,1,1,1,1,1,1,NaN
246,228,2,2,2,2,1,1,NaN
247,292,2,1,1,2,2,1,0.545654374540391
248,283,1,1,1,1,1,1,NaN
249,299,1,2,1,1,1,1,NaN
250,302,2,1,1,2,1,1,NaN
251,285,1,2,2,1,1,1,NaN
252,262,2,1,2,2,1,1,NaN
253,258,2,1,2,2,1,1,NaN
254,226,2,1,1,2,1,1,NaN
255,250,2,1,1,2,1,1,NaN
256,290,1,2,2,1,1,1,NaN
257,308,1,2,2,1,1,1,NaN
258,288,1,1,2,1,1,1,NaN
259,257,1,1,2,1,1,1,NaN
260,322,2,2,2,2,1,1,NaN
261,234,2,2,2,2,2,1,0.707481772812571
262,272,2,2,2,2,1,1,NaN
263,237,2,1,1,2,2,1,0.400387356084138
264,293,1,1,2,1,1,1,NaN
265,305,1,1,2,1,2,1,0.65202745908573
266,286,2,2,2,2,1,1,NaN
267,247,1,2,2,1,1,1,NaN
268,326,2,2,1,2,1,1,NaN
269,255,1,2,1,1,1,1,NaN
270,236,1,2,2,1,1,1,NaN
271,277,1,2,1,1,1,1,NaN
272,267,1,2,1,1,1,1,NaN
273,223,1,2,1,1,1,1,NaN
274,261,1,1,2,1,1,1,NaN
275,266,2,1,1,2,1,1,NaN
276,241,2,1,1,2,1,1,NaN
277,291,2,2,1,2,1,1,NaN
278,251,1,2,2,1,1,1,NaN
279,274,1,2,2,1,2,1,0.693165166866493
280,222,2,1,1,2,1,1,NaN
281,276,2,1,2,2,1,1,NaN
282,273,2,1,1,2,2,1,0.305976480613936
283,318,2,2,1,2,1,1,NaN
284,289,2,1,2,2,1,1,NaN
285,320,2,1,1,2,1,1,NaN
286,328,2,1,1,2,1,1,NaN
287,310,1,1,2,1,1,1,NaN
288,311,2,1,2,2,1,1,NaN
289,275,1,1,2,1,1,1,NaN
290,229,1,1,1,1,1,1,NaN
291,317,1,2,2,1,1,1,NaN
292,243,2,2,1,2,1,1,NaN
293,294,2,1,2,2,1,1,NaN
294,307,2,1,2,2,1,1,NaN
295,324,2,1,2,2,1,1,NaN
296,325,1,2,1,1,1,1,NaN
297,259,1,2,1,1,1,1,NaN
298,282,2,2,2,2,1,1,NaN
299,248,2,2,2,2,1,1,NaN
300,301,1,1,1,1,1,1,NaN
301,224,2,2,2,2,1,1,NaN
302,240,2,2,2,2,2,1,0.555242871620976
303,230,2,1,2,2,1,1,NaN
304,281,1,2,1,1,1,1,NaN
305,246,2,1,1,2,1,1,NaN
306,319,1,1,2,1,1,1,NaN
307,235,2,1,2,2,1,1,NaN
308,244,1,1,2,1,2,1,0.44071324324068
309,327,1,1,2,1,1,1,NaN
310,321,1,2,1,1,1,1,NaN
311,315,1,2,1,1,2,1,0.346007080457639
312,256,2,2,2,2,1,1,NaN
313,227,1,2,1,1,1,1,NaN
314,253,1,1,1,1,1,1,NaN
315,231,1,2,1,1,1,1,NaN
316,316,2,1,2,2,1,1,NaN
317,263,1,2,2,1,1,1,NaN
318,270,2,1,2,2,1,1,NaN
319,300,2,2,1,2,1,1,NaN
320,269,1,1,1,1,1,1,NaN
321,303,1,2,1,1,1,1,NaN
322,271,1,2,1,1,1,1,NaN
323,225,1,1,1,1,1,1,NaN
324,313,2,2,2,2,1,1,NaN
325,298,2,1,1,2,1,1,NaN
326,330,2,2,1,2,1,1,NaN
327,233,1,1,2,1,1,1,NaN
328,268,2,2,2,2,1,1,NaN
329,304,2,2,1,2,1,1,NaN
330,252,2,2,2,2,1,1,NaN
331,382,2,2,1,2,1,1,NaN
332,363,2,2,2,2,1,1,NaN
333,430,2,1,1,2,1,1,NaN
334,353,2,1,1,2,1,1,NaN
335,400,1,2,1,1,2,1,0.531890298275357
336,375,2,1,1,2,2,1,0.403732970130477
337,371,1,2,2,1,2,1,0.502048427704722
338,394,2,2,1,2,2,1,0.3200513548245
339,416,2,2,1,2,1,1,NaN
340,405,1,1,1,1,1,1,NaN
341,389,1,2,2,1,1,1,NaN
342,411,1,2,1,1,1,1,NaN
343,399,1,2,1,1,2,1,0.372679221693943
344,347,2,2,1,2,1,1,NaN
345,402,2,1,1,2,2,1,0.31606512241251
346,387,1,1,1,1,1,1,NaN
347,373,1,1,1,1,1,1,NaN
348,364,1,1,2,1,1,1,NaN
349,377,1,2,2,1,1,1,NaN
350,374,2,1,1,2,1,1,NaN
351,412,2,2,2,2,1,1,NaN
352,409,1,1,1,1,1,1,NaN
353,340,2,2,2,2,2,1,0.341065627239914
354,429,1,1,1,1,1,1,NaN
355,350,1,2,2,1,1,1,NaN
356,408,2,2,2,2,1,1,NaN
357,360,1,1,2,1,1,1,NaN
358,433,1,1,1,1,1,1,NaN
359,359,2,2,1,2,1,1,NaN
360,426,2,1,1,2,1,1,NaN
361,404,2,2,1,2,2,1,0.417259411807208
362,362,1,2,2,1,1,1,NaN
363,342,1,2,1,1,1,1,NaN
364,392,2,1,2,2,1,1,NaN
365,345,2,1,1,2,1,1,NaN
366,424,2,2,1,2,1,1,NaN
367,361,2,1,2,2,1,1,NaN
368,420,2,2,2,2,1,1,NaN
369,384,2,1,1,2,1,1,NaN
370,407,1,2,1,1,1,1,NaN
371,338,2,2,2,2,1,1,NaN
372,425,1,1,2,1,1,1,NaN
373,376,1,1,2,1,2,1,0.412719479099906
374,398,1,2,1,1,1,1,NaN
375,427,1,2,2,1,1,1,NaN
376,395,2,2,2,2,1,1,NaN
377,385,1,2,2,1,1,1,NaN
378,423,1,2,2,1,1,1,NaN
379,332,2,1,2,2,1,1,NaN
380,368,1,1,2,1,1,1,NaN
381,339,1,1,2,1,1,1,NaN
382,356,1,1,1,1,1,1,NaN
383,414,2,1,1,2,1,1,NaN
384,349,2,1,1,2,1,1,NaN
385,418,2,1,1,2,1,1,NaN
386,439,1,2,1,1,1,1,NaN
387,438,2,1,1,2,1,1,NaN
388,428,2,2,2,2,1,1,NaN
389,437,1,1,2,1,1,1,NaN
390,344,1,1,2,1,1,1,NaN
391,346,1,2,2,1,1,1,NaN
392,372,2,2,2,2,1,1,NaN
393,396,1,1,2,1,1,1,NaN
394,378,2,2,1,2,1,1,NaN
395,417,1,1,2,1,1,1,NaN
396,390,2,2,2,2,1,1,NaN
397,354,1,2,1,1,1,1,NaN
398,397,2,1,2,2,1,1,NaN
399,435,1,2,2,1,1,1,NaN
400,348,1,1,1,1,1,1,NaN
401,413,1,1,2,1,1,1,NaN
402,388,2,1,1,2,1,1,NaN
403,343,2,2,1,2,1,1,NaN
404,334,2,2,2,2,1,1,NaN
405,391,1,1,2,1,1,1,NaN
406,436,2,2,1,2,1,1,NaN
407,341,2,1,1,2,1,1,NaN
408,336,2,1,2,2,1,1,NaN
409,352,1,1,1,1,1,1,NaN
410,440,2,2,1,2,1,1,NaN
411,410,2,1,1,2,1,1,NaN
412,337,1,2,1,1,1,1,NaN
413,381,1,2,2,1,1,1,NaN
414,403,2,2,2,2,1,1,NaN
415,383,1,1,2,1,1,1,NaN
416,365,2,1,1,2,1,1,NaN
417,351,2,2,2,2,1,1,NaN
418,367,2,2,2,2,1,1,NaN
419,355,2,2,1,2,1,1,NaN
420,406,2,1,1,2,1,1,NaN
421,357,2,1,2,2,1,1,NaN
422,379,1,1,1,1,1,1,NaN
423,386,2,2,1,2,1,1,NaN
424,422,2,1,1,2,1,1,NaN
425,358,1,2,2,1,1,1,NaN
426,421,1,1,2,1,1,1,NaN
427,380,2,1,1,2,1,1,NaN
428,431,1,2,1,1,1,1,NaN
429,432,2,2,1,2,1,1,NaN
430,401,1,1,2,1,2,1,0.616629563088281
431,369,2,1,1,2,1,1,NaN
432,393,1,2,1,1,1,1,NaN
433,366,1,2,1,1,1,1,NaN
434,415,1,2,1,1,1,1,NaN
435,419,1,2,2,1,1,1,NaN
436,333,1,2,1,1,1,1,NaN
437,434,2,1,1,2,1,1,NaN
438,331,1,1,1,1,1,1,NaN
439,335,1,1,1,1,1,1,NaN
440,370,1,2,2,1,1,1,NaN
