PresOrder,TrialNumber,Far_Close,Hallway,Perspective,Phase,Catch_Trial,Response,Response_Time
1,29,1,1,2,1,1,1,NaN
2,60,1,2,1,1,1,1,NaN
3,72,2,1,1,2,1,1,NaN
4,66,1,2,2,1,2,1,0.548751675800304
5,101,1,2,2,1,1,1,NaN
6,10,1,2,1,1,1,1,NaN
7,26,1,1,1,1,2,1,0.66615452465885
8,48,2,2,1,2,1,1,NaN
9,35,2,1,1,2,2,1,0.612664364662123
10,96,2,1,1,2,1,1,NaN
11,23,2,2,2,2,1,1,NaN
12,103,1,1,2,1,1,1,NaN
13,82,2,2,2,2,1,1,NaN
14,98,2,2,1,2,1,1,NaN
15,45,1,1,2,1,1,1,NaN
16,97,1,2,1,1,1,1,NaN
17,7,1,1,2,1,1,1,NaN
18,22,1,2,2,1,1,1,NaN
19,32,2,2,2,2,1,1,NaN
20,19,2,2,1,2,1,1,NaN
21,67,1,1,2,1,1,1,NaN
22,105,1,2,1,1,1,1,NaN
23,53,2,2,1,2,1,1,NaN
24,5,1,2,1,1,1,1,NaN
25,69,1,2,1,1,1,1,NaN
26,87,1,1,2,1,1,1,NaN
27,83,1,1,1,1,1,1,NaN
28,9,1,1,2,1,2,1,0.649377630397794
29,12,1,1,1,1,1,1,NaN
30,109,1,2,2,1,1,1,NaN
31,36,2,1,2,2,1,1,NaN
32,95,1,1,1,1,1,1,NaN
33,57,2,2,2,2,1,1,NaN
34,16,1,1,2,1,1,1,NaN
35,94,2,2,2,2,1,1,NaN
36,2,1,1,2,1,1,1,NaN
37,24,1,1,2,1,1,1,NaN
38,92,2,1,1,2,1,1,NaN
39,85,1,2,2,1,1,1,NaN
40,52,1,2,1,1,1,1,NaN
41,41,2,1,1,2,1,1,NaN
42,70,2,2,2,2,1,1,NaN
43,93,1,2,2,1,1,1,NaN
44,62,1,1,2,1,1,1,NaN
45,49,1,2,2,1,2,1,0.615219221655934
46,44,2,2,2,2,1,1,NaN
47,100,2,1,1,2,1,1,NaN
48,71,1,1,2,1,1,1,NaN
49,11,2,2,2,2,1,1,NaN
50,37,1,2,1,1,1,1,NaN
51,27,1,2,2,1,1,1,NaN
52,104,2,1,2,2,1,1,NaN
53,108,2,1,2,2,1,1,NaN
54,75,1,1,1,1,1,1,NaN
55,80,2,1,1,2,1,1,NaN
56,73,1,2,2,1,1,1,NaN
57,6,2,2,2,2,1,1,NaN
58,91,1,1,2,1,1,1,NaN
59,84,2,1,2,2,1,1,NaN
60,79,1,1,2,1,1,1,NaN
61,86,2,2,1,2,1,1,NaN
62,110,2,2,1,2,1,1,NaN
63,68,2,1,1,2,1,1,NaN
64,1,1,1,2,1,2,1,0.591669176163123
65,59,2,1,1,2,1,1,NaN
66,56,1,2,2,1,1,1,NaN
67,3,2,2,1,2,2,1,0.592002214794775
68,43,2,1,1,2,2,1,0.683117838609178
69,102,2,2,2,2,1,1,NaN
70,4,2,1,2,2,1,1,NaN
71,15,2,2,2,2,1,1,NaN
72,89,1,2,1,1,1,1,NaN
73,30,2,1,2,2,1,1,NaN
74,54,1,1,2,1,1,1,NaN
75,50,1,1,2,1,1,1,NaN
76,58,1,1,1,1,1,1,NaN
77,99,1,1,2,1,1,1,NaN
78,81,1,2,2,1,1,1,NaN
79,31,1,2,2,1,1,1,NaN
80,17,2,1,2,2,1,1,NaN
81,8,2,1,1,2,1,1,NaN
82,46,2,1,2,2,1,1,NaN
83,39,1,1,2,1,1,1,NaN
84,14,1,2,1,1,1,1,NaN
85,25,2,1,2,2,1,1,NaN
86,63,2,1,1,2,1,1,NaN
87,33,1,1,1,1,1,1,NaN
88,38,2,2,2,2,1,1,NaN
89,88,2,1,1,2,1,1,NaN
90,34,2,2,1,2,2,1,0.613356488005593
91,107,1,1,1,1,1,1,NaN
92,21,2,1,1,2,1,1,NaN
93,42,1,2,1,1,1,1,NaN
94,55,2,1,1,2,1,1,NaN
95,76,2,1,2,2,1,1,NaN
96,74,2,2,1,2,1,1,NaN
97,78,2,2,1,2,1,1,NaN
98,28,2,2,2,2,1,1,NaN
99,40,2,1,2,2,2,1,0.4506159019802
100,47,1,2,1,1,1,1,NaN
101,13,2,1,1,2,1,1,NaN
102,51,2,1,1,2,1,1,NaN
103,18,1,2,1,1,1,1,NaN
104,77,1,2,1,1,1,1,NaN
105,90,2,2,2,2,1,1,NaN
106,64,1,2,2,1,1,1,NaN
107,20,1,1,1,1,1,1,NaN
108,65,2,2,2,2,1,1,NaN
109,61,2,2,1,2,1,1,NaN
110,106,2,2,2,2,1,1,NaN
111,161,1,2,1,1,1,1,NaN
112,170,1,2,2,1,1,1,NaN
113,126,2,1,2,2,1,1,NaN
114,193,1,1,1,1,1,1,NaN
115,181,2,1,1,2,1,1,NaN
116,185,2,1,2,2,1,1,NaN
117,137,2,2,1,2,1,1,NaN
118,195,2,2,2,2,2,1,0.574484616863629
119,129,1,1,1,1,1,1,NaN
120,184,1,1,2,1,1,1,NaN
121,147,1,2,2,1,2,1,0.789343700256723
122,176,1,1,1,1,1,1,NaN
123,136,2,1,1,2,2,1,0.510140850758035
124,167,2,2,2,2,1,1,NaN
125,154,2,2,1,2,1,1,NaN
126,214,1,2,2,1,2,1,0.430418484404072
127,219,1,2,2,1,1,1,NaN
128,164,2,1,2,2,1,1,NaN
129,139,2,1,2,2,1,1,NaN
130,112,2,1,1,2,1,1,NaN
131,171,2,2,1,2,1,1,NaN
132,199,2,1,1,2,1,1,NaN
133,187,2,2,1,2,1,1,NaN
134,130,2,1,2,2,1,1,NaN
135,124,2,2,2,2,1,1,NaN
136,122,2,1,2,2,1,1,NaN
137,162,2,2,2,2,1,1,NaN
138,156,2,1,1,2,1,1,NaN
139,182,1,2,2,1,1,1,NaN
140,118,1,2,1,1,1,1,NaN
141,188,1,1,1,1,1,1,NaN
142,117,2,1,1,2,1,1,NaN
143,201,2,2,1,2,1,1,NaN
144,203,2,1,1,2,1,1,NaN
145,217,1,1,1,1,1,1,NaN
146,133,1,1,2,1,1,1,NaN
147,125,1,1,2,1,1,1,NaN
148,145,2,2,1,2,1,1,NaN
149,186,1,2,2,1,1,1,NaN
150,138,1,1,2,1,1,1,NaN
151,200,1,2,1,1,1,1,NaN
152,205,2,2,2,2,1,1,NaN
153,198,1,1,1,1,1,1,NaN
154,128,2,2,1,2,1,1,NaN
155,207,2,1,1,2,1,1,NaN
156,142,1,1,2,1,1,1,NaN
157,158,2,2,2,2,1,1,NaN
158,153,1,2,1,1,1,1,NaN
159,152,2,1,2,2,1,1,NaN
160,157,1,2,2,1,1,1,NaN
161,141,2,2,1,2,1,1,NaN
162,151,1,1,2,1,1,1,NaN
163,135,1,2,2,1,1,1,NaN
164,134,2,1,2,2,1,1,NaN
165,131,1,2,2,1,1,1,NaN
166,111,1,1,1,1,1,1,NaN
167,192,2,2,2,2,1,1,NaN
168,191,1,2,1,1,1,1,NaN
169,180,1,1,1,1,1,1,NaN
170,213,1,2,1,1,1,1,NaN
171,113,1,1,2,1,2,1,0.540602472154205
172,114,1,2,1,1,1,1,NaN
173,206,1,1,1,1,1,1,NaN
174,190,2,1,2,2,1,1,NaN
175,211,2,1,2,2,1,1,NaN
176,166,1,2,1,1,1,1,NaN
177,160,2,1,1,2,1,1,NaN
178,140,1,2,2,1,1,1,NaN
179,116,1,1,2,1,1,1,NaN
180,216,2,1,1,2,2,1,0.541996083724371
181,149,1,2,2,1,1,1,NaN
182,172,1,1,2,1,1,1,NaN
183,215,2,2,1,2,1,1,NaN
184,177,2,1,2,2,1,1,NaN
185,178,1,2,1,1,1,1,NaN
186,119,1,1,1,1,2,1,0.459703935095604
187,220,2,2,1,2,1,1,NaN
188,123,1,2,2,1,1,1,NaN
189,127,1,2,2,1,1,1,NaN
190,132,2,2,2,2,1,1,NaN
191,144,1,2,1,1,1,1,NaN
192,146,1,1,2,1,1,1,NaN
193,196,1,2,2,1,1,1,NaN
194,155,1,1,1,1,1,1,NaN
195,159,1,1,1,1,1,1,NaN
196,210,1,1,1,1,1,1,NaN
197,174,1,2,1,1,1,1,NaN
198,173,2,1,1,2,1,1,NaN
199,165,1,2,1,1,2,1,0.572413807232806
200,150,2,2,1,2,1,1,NaN
201,179,2,2,1,2,1,1,NaN
202,218,2,1,2,2,1,1,NaN
203,120,2,2,2,2,1,1,NaN
204,115,2,2,1,2,1,1,NaN
205,194,2,1,2,2,1,1,NaN
206,209,2,2,2,2,1,1,NaN
207,208,1,2,2,1,1,1,NaN
208,169,2,1,2,2,1,1,NaN
209,121,1,1,1,1,1,1,NaN
210,197,2,2,2,2,1,1,NaN
211,204,1,2,1,1,1,1,NaN
212,183,2,2,2,2,1,1,NaN
213,168,1,1,2,1,1,1,NaN
214,212,2,2,1,2,2,1,0.52421100133688
215,143,2,1,1,2,1,1,NaN
216,163,1,1,1,1,1,1,NaN
217,202,1,1,1,1,1,1,NaN
218,175,2,2,1,2,1,1,NaN
219,148,2,1,1,2,1,1,NaN
220,189,2,2,1,2,2,1,0.429264555295958
221,274,1,1,2,1,1,1,NaN
222,312,1,1,2,1,1,1,NaN
223,318,1,1,1,1,1,1,NaN
224,307,2,2,1,2,1,1,NaN
225,244,1,1,1,1,1,1,NaN
226,247,2,2,1,2,1,1,NaN
227,252,2,2,2,2,1,1,NaN
228,310,1,2,1,1,1,1,NaN
229,315,2,2,2,2,1,1,NaN
230,321,2,2,2,2,1,1,NaN
231,273,2,2,1,2,1,1,NaN
232,325,2,1,1,2,2,1,0.509344543097541
233,290,1,1,1,1,1,1,NaN
234,326,2,2,1,2,1,1,NaN
235,286,1,1,1,1,1,1,NaN
236,316,2,1,2,2,2,1,0.426896703298553
237,313,2,1,2,2,1,1,NaN
238,322,1,1,2,1,1,1,NaN
239,258,1,1,1,1,1,1,NaN
240,228,2,1,1,2,1,1,NaN
241,330,2,2,1,2,1,1,NaN
242,277,2,2,2,2,1,1,NaN
243,261,2,2,1,2,1,1,NaN
244,222,1,1,1,1,1,1,NaN
245,263,2,1,2,2,1,1,NaN
246,281,2,2,1,2,1,1,NaN
247,257,2,2,2,2,1,1,NaN
248,294,2,2,1,2,1,1,NaN
249,233,1,2,1,1,1,1,NaN
250,231,1,1,2,1,1,1,NaN
251,240,2,1,1,2,1,1,NaN
252,239,1,1,2,1,1,1,NaN
253,262,1,1,2,1,1,1,NaN
254,304,1,1,2,1,1,1,NaN
255,253,1,1,1,1,1,1,NaN
256,268,1,2,2,1,1,1,NaN
257,306,1,2,2,1,1,1,NaN
258,237,1,2,2,1,1,1,NaN
259,309,2,1,2,2,1,1,NaN
260,278,1,1,2,1,1,1,NaN
261,283,2,1,2,2,1,1,NaN
262,293,1,2,1,1,1,1,NaN
263,320,1,2,1,1,1,1,NaN
264,224,1,2,1,1,1,1,NaN
265,314,1,2,2,1,1,1,NaN
266,250,2,1,1,2,1,1,NaN
267,280,1,2,2,1,1,1,NaN
268,269,2,2,1,2,1,1,NaN
269,226,2,2,1,2,1,1,NaN
270,297,1,2,2,1,1,1,NaN
271,265,2,2,1,2,1,1,NaN
272,243,2,2,1,2,1,1,NaN
273,249,1,1,2,1,1,1,NaN
274,270,1,1,2,1,1,1,NaN
275,282,1,1,2,1,1,1,NaN
276,256,1,2,2,1,1,1,NaN
277,295,1,1,2,1,1,1,NaN
278,279,2,1,1,2,1,1,NaN
279,221,1,1,1,1,2,1,0.51470096320736
280,285,2,2,1,2,1,1,NaN
281,260,1,2,2,1,1,1,NaN
282,308,1,1,1,1,1,1,NaN
283,292,2,1,2,2,1,1,NaN
284,291,1,1,1,1,2,1,0.404910885827121
285,238,2,2,2,2,1,1,NaN
286,305,2,1,2,2,1,1,NaN
287,229,1,2,2,1,1,1,NaN
288,276,1,2,1,1,1,1,NaN
289,327,1,1,1,1,1,1,NaN
290,302,1,2,2,1,1,1,NaN
291,287,2,1,1,2,1,1,NaN
292,301,2,1,1,2,1,1,NaN
293,223,2,1,2,2,1,1,NaN
294,241,2,2,2,2,2,1,0.56156663947877
295,289,2,2,1,2,1,1,NaN
296,271,2,1,1,2,1,1,NaN
297,272,1,2,1,1,1,1,NaN
298,248,1,2,1,1,2,1,0.426802176514684
299,254,2,1,2,2,1,1,NaN
300,232,2,1,1,2,1,1,NaN
301,323,2,1,2,2,1,1,NaN
302,324,1,2,2,1,1,1,NaN
303,245,2,1,1,2,1,1,NaN
304,246,1,2,1,1,1,1,NaN
305,225,2,2,2,2,2,1,0.578510931012715
306,298,2,2,1,2,1,1,NaN
307,319,2,1,2,2,1,1,NaN
308,288,1,2,2,1,1,1,NaN
309,236,2,1,1,2,1,1,NaN
310,300,2,1,1,2,2,1,0.567768240231089
311,317,1,1,2,1,2,1,0.499994000621882
312,311,2,2,1,2,1,1,NaN
313,235,1,1,2,1,1,1,NaN
314,242,1,2,2,1,1,1,NaN
315,299,1,1,2,1,1,1,NaN
316,303,2,2,2,2,1,1,NaN
317,329,1,2,1,1,1,1,NaN
318,328,2,1,1,2,1,1,NaN
319,255,1,2,2,1,2,1,0.470874191290932
320,234,2,2,1,2,1,1,NaN
321,284,1,2,1,1,1,1,NaN
322,267,2,1,1,2,1,1,NaN
323,230,2,2,2,2,1,1,NaN
324,251,1,2,1,1,1,1,NaN
325,275,2,1,2,2,1,1,NaN
326,227,1,1,1,1,1,1,NaN
327,259,2,1,2,2,1,1,NaN
328,296,2,1,1,2,1,1,NaN
329,264,1,2,2,1,1,1,NaN
330,266,1,1,1,1,1,1,NaN
331,429,1,1,2,1,1,1,NaN
332,341,1,1,1,1,2,1,0.606177427649527
333,379,2,2,1,2,1,1,NaN
334,345,2,2,2,2,1,1,NaN
335,343,1,2,2,1,1,1,NaN
336,406,2,2,1,2,1,1,NaN
337,340,1,1,1,1,1,1,NaN
338,430,2,1,1,2,1,1,NaN
339,414,1,2,1,1,1,1,NaN
340,388,2,2,1,2,1,1,NaN
341,419,2,2,1,2,1,1,NaN
342,344,1,2,2,1,2,1,0.563857816501695
343,352,2,1,1,2,1,1,NaN
344,415,2,2,2,2,1,1,NaN
345,376,1,1,2,1,1,1,NaN
346,372,1,1,1,1,1,1,NaN
347,332,2,1,1,2,1,1,NaN
348,362,2,2,2,2,1,1,NaN
349,427,1,2,1,1,1,1,NaN
350,353,1,2,2,1,1,1,NaN
351,399,1,1,2,1,1,1,NaN
352,364,2,1,2,2,1,1,NaN
353,436,2,2,1,2,1,1,NaN
354,411,1,2,1,1,2,1,0.767082789365304
355,421,2,1,2,2,1,1,NaN
356,380,1,1,2,1,1,1,NaN
357,384,2,2,2,2,1,1,NaN
358,349,2,2,1,2,1,1,NaN
359,358,2,2,1,2,1,1,NaN
360,350,1,1,2,1,1,1,NaN
361,359,1,1,2,1,1,1,NaN
362,382,2,1,1,2,1,1,NaN
363,432,2,2,1,2,1,1,NaN
364,377,2,1,2,2,1,1,NaN
365,392,1,2,2,1,1,1,NaN
366,405,1,2,1,1,1,1,NaN
367,431,1,2,2,1,1,1,NaN
368,413,2,1,1,2,1,1,NaN
369,424,1,1,1,1,1,1,NaN
370,334,2,2,2,2,1,1,NaN
371,390,1,1,1,1,2,1,0.627676856536709
372,403,1,1,1,1,1,1,NaN
373,420,1,1,2,1,1,1,NaN
374,335,1,1,2,1,1,1,NaN
375,440,2,2,2,2,1,1,NaN
376,368,2,2,2,2,2,1,0.49604494675259
377,433,1,1,1,1,1,1,NaN
378,416,1,1,1,1,1,1,NaN
379,402,2,2,2,2,1,1,NaN
380,333,1,2,2,1,1,1,NaN
381,408,2,1,2,2,1,1,NaN
382,336,2,1,1,2,1,1,NaN
383,422,1,2,2,1,1,1,NaN
384,417,2,1,1,2,1,1,NaN
385,342,2,1,1,2,1,1,NaN
386,369,2,1,2,2,1,1,NaN
387,397,2,1,1,2,2,1,0.461935996296233
388,425,2,1,2,2,1,1,NaN
389,394,1,1,2,1,1,1,NaN
390,375,2,2,1,2,1,1,NaN
391,361,1,2,1,1,1,1,NaN
392,418,1,2,2,1,1,1,NaN
393,437,1,1,1,1,1,1,NaN
394,363,1,1,2,1,1,1,NaN
395,423,2,2,1,2,1,1,NaN
396,383,1,2,1,1,1,1,NaN
397,378,1,2,1,1,1,1,NaN
398,428,2,2,2,2,1,1,NaN
399,439,1,2,2,1,1,1,NaN
400,360,2,1,2,2,1,1,NaN
401,367,1,1,2,1,1,1,NaN
402,381,2,2,1,2,2,1,0.608363249742979
403,338,2,2,2,2,2,1,0.63481172635511
404,401,1,2,2,1,1,1,NaN
405,339,2,2,2,2,1,1,NaN
406,385,1,1,2,1,1,1,NaN
407,396,1,2,2,1,1,0,0.914436288217985
408,407,1,1,1,1,1,1,NaN
409,404,2,1,2,2,1,1,NaN
410,347,2,1,2,2,1,1,NaN
411,434,2,1,1,2,1,1,NaN
412,354,2,2,2,2,1,1,NaN
413,365,1,2,1,1,1,1,NaN
414,409,1,2,2,1,1,1,NaN
415,348,1,2,2,1,1,1,NaN
416,346,1,1,1,1,1,1,NaN
417,412,1,1,1,1,1,1,NaN
418,366,2,2,1,2,1,1,NaN
419,371,2,2,1,2,1,1,NaN
420,351,2,1,2,2,2,1,0.560912560969882
421,426,1,2,1,1,2,1,0.521341835476051
422,370,1,2,2,1,1,1,NaN
423,438,2,1,1,2,1,1,NaN
424,387,1,2,2,1,1,1,NaN
425,389,1,1,1,1,1,1,NaN
426,398,2,2,2,2,1,1,NaN
427,393,2,2,1,2,1,1,NaN
428,357,1,2,1,1,1,1,NaN
429,374,1,2,1,1,1,1,NaN
430,395,2,1,1,2,1,1,NaN
431,435,1,2,1,1,1,1,NaN
432,391,2,1,2,2,1,1,NaN
433,331,1,1,1,1,1,1,NaN
434,386,2,1,2,2,1,1,NaN
435,400,2,1,1,2,1,1,NaN
436,337,1,2,1,1,1,1,NaN
437,355,1,1,2,1,1,1,NaN
438,356,2,1,2,2,1,1,NaN
439,373,2,1,1,2,1,1,NaN
440,410,2,2,2,2,1,1,NaN
