PresOrder,TrialNumber,Far_Close,Hallway,Perspective,Phase,Catch_Trial,Response,Response_Time
1,8,2,2,2,2,1,1,NaN
2,97,2,2,1,2,1,1,NaN
3,18,1,1,2,1,1,1,NaN
4,48,2,2,2,2,2,1,0.319931366916535
5,87,2,1,1,2,1,1,NaN
6,26,2,2,2,2,1,1,NaN
7,74,1,2,2,1,1,1,NaN
8,94,1,1,2,1,1,1,NaN
9,16,1,2,2,1,1,1,NaN
10,106,2,2,1,2,1,1,NaN
11,110,2,2,1,2,1,1,NaN
12,80,1,1,2,1,1,1,NaN
13,30,1,1,1,1,2,1,0.341761264450724
14,47,2,1,2,2,1,1,NaN
15,36,2,2,2,2,1,1,NaN
16,73,2,1,2,2,1,1,NaN
17,54,2,2,1,2,1,1,NaN
18,53,1,2,1,1,1,1,NaN
19,91,2,1,2,2,1,1,NaN
20,102,1,1,2,1,1,1,NaN
21,100,1,2,2,1,1,1,NaN
22,109,1,2,1,1,1,1,NaN
23,71,2,2,1,2,1,1,NaN
24,33,2,2,1,2,2,1,0.400998123798672
25,89,2,2,2,2,1,1,NaN
26,83,2,2,1,2,1,1,NaN
27,44,1,2,2,1,1,1,NaN
28,7,1,2,2,1,1,1,NaN
29,72,1,1,2,1,1,1,NaN
30,108,2,1,2,2,1,1,NaN
31,86,1,1,1,1,1,1,NaN
32,98,1,1,1,1,1,1,NaN
33,13,1,1,1,1,1,1,NaN
34,82,1,2,1,1,1,1,NaN
35,61,1,2,2,1,1,1,NaN
36,81,2,1,2,2,1,1,NaN
37,5,1,1,2,1,1,1,NaN
38,60,2,1,2,2,1,1,NaN
39,77,2,1,2,2,1,1,NaN
40,101,2,2,2,2,1,1,NaN
41,31,2,2,1,2,1,1,NaN
42,32,1,1,1,1,1,1,NaN
43,4,2,2,2,2,1,1,NaN
44,79,2,2,1,2,1,1,NaN
45,12,2,2,2,2,1,1,NaN
46,10,2,1,1,2,1,1,NaN
47,37,1,1,1,1,1,1,NaN
48,70,1,2,2,1,1,1,NaN
49,40,1,2,1,1,1,1,NaN
50,90,1,1,2,1,1,1,NaN
51,88,1,2,2,1,1,1,NaN
52,28,2,1,2,2,1,1,NaN
53,78,1,2,2,1,1,1,NaN
54,85,1,2,1,1,2,1,0.371712880058112
55,95,2,1,1,2,1,1,NaN
56,76,1,1,1,1,1,1,NaN
57,29,1,2,2,1,1,1,NaN
58,1,1,1,2,1,1,1,NaN
59,104,1,1,1,1,2,1,0.335861078585367
60,2,2,1,2,2,1,1,NaN
61,19,2,1,1,2,1,1,NaN
62,49,1,2,2,1,1,1,NaN
63,20,2,1,1,2,2,1,0.338398969157424
64,63,1,1,2,1,1,1,NaN
65,46,1,1,2,1,1,1,NaN
66,24,2,1,2,2,1,1,NaN
67,67,1,1,1,1,1,1,NaN
68,11,1,2,2,1,1,1,NaN
69,84,2,1,2,2,2,1,0.706552305508922
70,107,1,1,1,1,1,1,NaN
71,55,1,1,2,1,1,1,NaN
72,45,2,2,2,2,1,1,NaN
73,14,2,1,2,2,2,1,0.349629251998522
74,50,2,2,2,2,1,1,NaN
75,34,2,1,2,2,1,1,NaN
76,22,2,2,1,2,1,1,NaN
77,64,2,1,1,2,1,1,NaN
78,23,1,1,2,1,1,1,NaN
79,69,1,1,2,1,2,1,0.326940709292103
80,99,2,1,1,2,1,1,NaN
81,15,2,1,1,2,1,1,NaN
82,96,1,2,1,1,1,1,NaN
83,6,2,1,2,2,1,1,NaN
84,66,2,2,2,2,1,1,NaN
85,57,1,2,1,1,1,1,NaN
86,35,1,2,1,1,1,1,NaN
87,58,2,2,2,2,1,1,NaN
88,56,2,1,2,2,1,1,NaN
89,9,1,1,1,1,1,1,NaN
90,52,2,1,1,2,1,1,NaN
91,3,1,2,1,1,1,1,NaN
92,103,2,1,1,2,1,1,NaN
93,25,1,2,1,1,1,1,NaN
94,75,2,2,1,2,1,1,NaN
95,43,2,1,1,2,1,1,NaN
96,41,2,2,1,2,1,1,NaN
97,27,1,1,2,1,1,1,NaN
98,68,2,1,1,2,1,1,NaN
99,42,1,1,1,1,1,1,NaN
100,92,1,2,1,1,1,1,NaN
101,59,1,1,2,1,1,1,NaN
102,93,2,2,2,2,1,1,NaN
103,65,1,2,1,1,1,1,NaN
104,51,1,1,1,1,1,1,NaN
105,105,1,2,1,1,1,1,NaN
106,62,2,2,2,2,1,1,NaN
107,21,1,2,1,1,1,1,NaN
108,39,1,2,2,1,2,1,0.471540477920826
109,38,2,1,2,2,1,1,NaN
110,17,2,2,2,2,1,1,NaN
111,141,1,2,1,1,1,1,NaN
112,128,2,1,2,2,1,1,NaN
113,125,2,2,1,2,1,1,NaN
114,144,1,2,2,1,2,1,0.349997702670407
115,181,1,1,1,1,1,1,NaN
116,151,1,2,1,1,1,1,NaN
117,204,1,1,2,1,1,1,NaN
118,209,2,1,1,2,1,1,NaN
119,192,1,2,2,1,1,1,NaN
120,137,1,2,1,1,1,1,NaN
121,154,2,1,2,2,1,1,NaN
122,185,2,2,1,2,1,1,NaN
123,176,2,2,2,2,1,1,NaN
124,148,1,1,2,1,1,1,NaN
125,135,1,1,1,1,1,1,NaN
126,117,2,1,1,2,1,1,NaN
127,158,2,1,2,2,1,1,NaN
128,197,1,2,1,1,1,1,NaN
129,120,2,2,2,2,1,1,NaN
130,113,2,1,1,2,1,1,NaN
131,131,1,1,1,1,1,1,NaN
132,169,1,1,2,1,1,1,NaN
133,136,2,1,1,2,1,1,NaN
134,112,2,1,1,2,2,1,0.600609714162601
135,201,2,1,2,2,1,1,NaN
136,216,1,1,2,1,1,1,NaN
137,220,2,2,1,2,1,1,NaN
138,198,2,2,1,2,1,1,NaN
139,212,1,1,1,1,1,1,NaN
140,218,2,1,1,2,1,1,NaN
141,165,1,1,2,1,1,1,NaN
142,140,2,1,1,2,1,1,NaN
143,122,1,1,1,1,2,1,0.455239974351571
144,219,1,2,1,1,1,1,NaN
145,194,2,2,2,2,1,1,NaN
146,188,1,2,2,1,1,1,NaN
147,167,1,2,1,1,1,1,NaN
148,180,2,2,1,2,1,1,NaN
149,133,1,2,1,1,1,1,NaN
150,126,1,1,1,1,1,1,NaN
151,199,1,1,1,1,1,1,NaN
152,162,2,1,2,2,1,1,NaN
153,179,1,2,2,1,1,1,NaN
154,213,2,1,1,2,1,1,NaN
155,173,1,1,1,1,1,1,NaN
156,186,1,1,1,1,1,1,NaN
157,215,2,2,1,2,1,1,NaN
158,155,1,2,1,1,1,1,NaN
159,124,1,2,1,1,1,1,NaN
160,187,2,1,2,2,1,1,NaN
161,138,2,2,2,2,1,1,NaN
162,182,1,2,1,1,2,1,0.378403230191907
163,127,1,2,2,1,2,1,0.398006327753137
164,146,1,2,2,1,1,1,NaN
165,203,2,2,2,2,1,1,NaN
166,174,2,1,2,2,1,1,NaN
167,115,2,2,1,2,1,1,NaN
168,150,2,1,2,2,1,1,NaN
169,132,2,1,1,2,1,1,NaN
170,153,1,1,1,1,1,1,NaN
171,149,2,2,1,2,2,1,0.450539374910477
172,139,1,1,1,1,1,1,NaN
173,183,2,1,1,2,1,1,NaN
174,205,2,1,1,2,1,1,NaN
175,161,1,1,2,1,1,1,NaN
176,166,2,1,1,2,1,1,NaN
177,164,2,2,1,2,1,1,NaN
178,193,1,1,2,1,2,1,0.427649193989055
179,156,2,2,2,2,1,1,NaN
180,206,1,2,2,1,1,1,NaN
181,170,2,1,2,2,1,1,NaN
182,123,2,1,2,2,1,1,NaN
183,152,2,2,2,2,1,1,NaN
184,134,2,2,1,2,1,1,NaN
185,129,1,2,1,1,1,1,NaN
186,159,1,2,1,1,1,1,NaN
187,142,2,2,1,2,1,1,NaN
188,210,1,2,1,1,1,1,NaN
189,196,2,1,2,2,1,1,NaN
190,195,1,1,2,1,1,1,NaN
191,189,2,2,1,2,1,1,NaN
192,171,1,2,1,1,1,1,NaN
193,178,2,1,2,2,1,1,NaN
194,190,1,1,1,1,1,1,NaN
195,168,2,2,1,2,1,1,NaN
196,147,2,2,2,2,1,1,NaN
197,175,1,2,2,1,1,1,NaN
198,172,2,2,1,2,1,1,NaN
199,177,1,1,2,1,1,1,NaN
200,200,2,2,1,2,2,1,0.502276697383422
201,121,1,1,2,1,1,1,NaN
202,207,2,2,1,2,1,1,NaN
203,184,1,2,1,1,1,1,NaN
204,217,2,2,2,2,2,1,0.312226094677499
205,163,1,2,1,1,1,1,NaN
206,208,1,1,1,1,1,1,NaN
207,191,2,1,1,2,1,1,NaN
208,111,1,1,1,1,1,1,NaN
209,143,1,1,1,1,1,1,NaN
210,157,1,1,2,1,1,1,NaN
211,116,1,1,2,1,1,1,NaN
212,160,2,2,1,2,1,1,NaN
213,118,2,1,1,2,2,1,0.463137519896918
214,214,1,2,2,1,1,1,NaN
215,119,1,2,2,1,1,1,NaN
216,130,2,2,1,2,1,1,NaN
217,202,1,2,1,1,1,1,NaN
218,145,2,1,2,2,1,1,NaN
219,211,2,2,2,2,1,1,NaN
220,114,1,2,1,1,1,1,NaN
221,319,2,1,2,2,1,1,NaN
222,324,1,2,1,1,1,1,NaN
223,307,1,2,1,1,1,1,NaN
224,312,2,2,2,2,1,1,NaN
225,283,2,2,1,2,1,1,NaN
226,326,2,2,2,2,1,1,NaN
227,278,1,2,1,1,1,1,NaN
228,310,2,1,2,2,1,1,NaN
229,223,2,1,1,2,1,1,NaN
230,264,1,1,2,1,1,1,NaN
231,280,1,1,1,1,1,1,NaN
232,303,2,2,2,2,1,1,NaN
233,257,2,1,2,2,1,1,NaN
234,301,2,1,2,2,1,1,NaN
235,323,2,1,1,2,1,1,NaN
236,267,2,2,1,2,1,1,NaN
237,272,1,1,1,1,1,1,NaN
238,285,2,1,1,2,1,1,NaN
239,277,2,1,2,2,1,1,NaN
240,294,1,1,1,1,2,1,0.677316227543997
241,229,2,2,1,2,1,1,NaN
242,239,1,1,1,1,1,1,NaN
243,329,1,2,1,1,1,1,NaN
244,316,2,2,2,2,1,1,NaN
245,243,1,1,2,1,1,1,NaN
246,292,2,2,2,2,1,1,NaN
247,295,1,1,1,1,1,1,NaN
248,221,1,1,1,1,1,1,NaN
249,258,1,2,2,1,1,1,NaN
250,269,2,1,2,2,1,1,NaN
251,327,1,1,2,1,1,1,NaN
252,304,1,1,2,1,1,1,NaN
253,275,2,2,1,2,1,1,NaN
254,286,1,2,2,1,1,1,NaN
255,262,1,2,1,1,1,1,NaN
256,254,1,2,2,1,1,1,NaN
257,297,2,1,1,2,2,1,0.384091827623706
258,222,2,1,2,2,2,1,0.400486565597021
259,225,2,2,1,2,1,1,NaN
260,260,1,1,1,1,1,1,NaN
261,253,2,1,1,2,1,1,NaN
262,227,2,1,1,2,1,1,NaN
263,242,2,2,1,2,1,1,NaN
264,279,2,2,1,2,1,1,NaN
265,284,1,1,1,1,1,1,NaN
266,224,1,2,1,1,1,1,NaN
267,248,1,2,1,1,2,1,0.376055564351191
268,274,1,2,2,1,1,1,NaN
269,311,1,2,2,1,1,1,NaN
270,244,2,1,1,2,1,1,NaN
271,330,2,2,2,2,1,1,NaN
272,306,2,2,1,2,2,1,0.359967527174376
273,305,2,1,1,2,1,1,NaN
274,247,1,1,2,1,1,1,NaN
275,318,1,2,1,1,2,1,0.486224071271863
276,290,2,1,1,2,1,1,NaN
277,261,2,1,1,2,1,1,NaN
278,268,1,1,1,1,1,1,NaN
279,232,2,1,1,2,1,1,NaN
280,265,2,1,1,2,1,1,NaN
281,266,1,2,2,1,1,1,NaN
282,245,1,2,1,1,1,1,NaN
283,236,2,1,2,2,1,1,NaN
284,293,1,1,2,1,2,1,0.367181141646142
285,233,1,2,2,1,1,1,NaN
286,241,1,2,1,1,1,1,NaN
287,263,2,2,2,2,1,1,NaN
288,296,2,1,1,2,1,1,NaN
289,302,1,2,1,1,1,1,NaN
290,281,2,1,2,2,1,1,NaN
291,315,1,2,2,1,1,1,NaN
292,299,2,2,1,2,1,1,NaN
293,237,1,2,2,1,1,1,NaN
294,322,1,1,2,1,1,1,NaN
295,314,2,1,1,2,1,1,NaN
296,308,2,2,1,2,1,1,NaN
297,328,2,1,2,2,1,1,NaN
298,282,1,2,1,1,1,1,NaN
299,238,2,2,1,2,1,1,NaN
300,321,2,2,2,2,1,1,NaN
301,273,2,1,1,2,1,1,NaN
302,228,1,2,1,1,1,1,NaN
303,235,1,1,1,1,1,1,NaN
304,300,1,1,2,1,1,1,NaN
305,313,1,1,2,1,1,1,NaN
306,276,1,1,1,1,1,1,NaN
307,230,2,2,1,2,2,1,0.548096860091391
308,298,1,2,1,1,1,1,NaN
309,270,1,2,1,1,1,1,NaN
310,289,1,1,2,1,1,1,NaN
311,226,1,1,1,1,1,1,NaN
312,246,2,2,2,2,1,1,NaN
313,309,1,1,1,1,1,1,NaN
314,234,2,2,1,2,1,1,NaN
315,240,2,1,2,2,1,1,NaN
316,259,2,2,2,2,1,1,NaN
317,250,1,2,1,1,1,1,NaN
318,287,1,1,1,1,2,1,0.404214677681011
319,251,2,2,1,2,1,1,NaN
320,271,2,2,2,2,1,1,NaN
321,252,1,1,1,1,1,1,NaN
322,325,2,1,2,2,2,1,0.366791327274768
323,320,1,2,2,1,1,1,NaN
324,288,2,2,2,2,1,1,NaN
325,317,1,1,2,1,1,1,NaN
326,249,2,1,1,2,1,1,NaN
327,255,2,2,2,2,1,1,NaN
328,256,1,1,1,1,1,1,NaN
329,291,1,2,1,1,1,1,NaN
330,231,1,1,2,1,1,1,NaN
331,421,1,1,1,1,1,1,NaN
332,380,2,2,2,2,1,1,NaN
333,363,1,1,2,1,1,1,NaN
334,387,1,1,1,1,1,1,NaN
335,433,1,2,1,1,2,1,0.391358119713914
336,401,2,1,2,2,1,1,NaN
337,366,2,2,2,2,1,1,NaN
338,422,2,1,2,2,1,1,NaN
339,356,2,1,1,2,1,1,NaN
340,394,2,2,1,2,1,1,NaN
341,335,1,1,2,1,1,1,NaN
342,410,1,2,2,1,1,1,NaN
343,347,1,1,1,1,1,1,NaN
344,375,2,2,1,2,1,1,NaN
345,339,1,1,1,1,1,1,NaN
346,438,2,1,1,2,1,1,NaN
347,351,1,1,1,1,1,1,NaN
348,435,2,2,1,2,2,1,0.462046507898776
349,367,1,1,1,1,2,1,0.478124594857945
350,419,1,2,1,1,1,1,NaN
351,348,2,1,1,2,1,1,NaN
352,350,2,2,2,2,1,1,NaN
353,376,2,2,1,2,2,1,0.547148370316791
354,420,2,2,2,2,1,1,NaN
355,415,1,2,1,1,1,1,NaN
356,371,2,2,2,2,1,1,NaN
357,386,2,1,1,2,2,0,NaN
358,349,1,2,2,1,1,1,NaN
359,431,1,1,1,1,1,1,NaN
360,382,2,1,2,2,1,1,NaN
361,359,1,1,2,1,1,1,NaN
362,400,1,1,1,1,1,1,NaN
363,428,2,1,2,2,1,1,NaN
364,397,2,1,2,2,1,1,NaN
365,403,2,2,2,2,1,1,NaN
366,427,2,1,2,2,2,1,0.387513238909378
367,402,1,2,1,1,1,1,NaN
368,381,1,1,2,1,1,1,NaN
369,398,1,2,1,1,1,1,NaN
370,377,1,1,1,1,1,1,NaN
371,344,2,1,1,2,1,1,NaN
372,384,1,2,2,1,2,1,0.515368256057627
373,345,1,2,2,1,1,1,NaN
374,424,1,2,1,1,1,1,NaN
375,353,1,2,2,1,1,1,NaN
376,385,2,2,2,2,1,1,NaN
377,341,1,2,1,1,1,1,NaN
378,388,2,1,1,2,1,1,NaN
379,408,1,1,2,1,1,1,NaN
380,352,2,1,1,2,1,1,NaN
381,331,1,1,1,1,1,1,NaN
382,338,2,2,1,2,1,1,NaN
383,412,1,1,1,1,1,1,NaN
384,439,1,2,1,1,1,1,NaN
385,426,1,1,2,1,1,1,NaN
386,355,1,1,2,1,1,1,NaN
387,392,2,1,2,2,1,1,NaN
388,396,1,1,2,1,1,1,NaN
389,336,2,1,2,2,1,1,NaN
390,358,2,2,2,2,1,1,NaN
391,399,2,2,1,2,1,1,NaN
392,368,1,1,1,1,1,1,NaN
393,430,2,2,1,2,1,1,NaN
394,425,2,2,2,2,1,1,NaN
395,346,2,2,2,2,1,1,NaN
396,417,1,1,1,1,1,1,NaN
397,407,2,2,2,2,1,1,NaN
398,374,1,2,1,1,1,1,NaN
399,405,2,1,2,2,1,1,NaN
400,414,2,1,1,2,1,1,NaN
401,406,1,2,1,1,1,1,NaN
402,364,2,1,2,2,1,1,NaN
403,418,2,1,1,2,1,1,NaN
404,354,2,2,1,2,1,1,NaN
405,409,2,1,1,2,1,1,NaN
406,337,1,2,1,1,1,1,NaN
407,391,1,1,2,1,1,1,NaN
408,370,1,2,2,1,1,1,NaN
409,416,2,2,1,2,1,1,NaN
410,361,1,2,1,1,1,1,NaN
411,390,2,2,1,2,1,1,NaN
412,378,2,1,2,2,1,1,NaN
413,423,1,2,2,1,2,1,0.403882223381515
414,342,2,2,1,2,1,1,NaN
415,362,2,2,2,2,1,1,NaN
416,334,2,2,1,2,1,1,NaN
417,343,1,1,2,1,1,1,NaN
418,365,1,2,2,1,1,1,NaN
419,369,2,1,2,2,1,1,NaN
420,413,2,2,2,2,2,1,0.396642270101438
421,373,2,1,1,2,1,1,NaN
422,437,1,1,1,1,1,1,NaN
423,411,2,2,2,2,1,1,NaN
424,332,2,1,1,2,1,1,NaN
425,429,1,2,2,1,1,1,NaN
426,393,1,2,1,1,1,1,NaN
427,436,2,2,1,2,1,1,NaN
428,395,1,1,2,1,2,1,0.565538419397853
429,434,1,2,2,1,1,1,NaN
430,340,2,1,2,2,1,1,NaN
431,383,1,2,2,1,1,1,NaN
432,372,1,1,1,1,1,1,NaN
433,440,2,2,2,2,1,1,NaN
434,379,1,2,1,1,1,1,NaN
435,389,1,2,1,1,1,1,NaN
436,432,2,1,1,2,1,1,NaN
437,333,1,2,1,1,1,1,NaN
438,357,1,2,1,1,1,1,NaN
439,360,2,1,2,2,1,1,NaN
440,404,1,1,1,1,1,1,NaN
