PresOrder,TrialNumber,Far_Close,Hallway,Perspective,Phase,Catch_Trial,Response,Response_Time
1,98,2,1,2,2,1,1,NaN
2,39,1,1,2,1,2,1,0.574379554589541
3,78,1,2,1,1,1,1,NaN
4,107,2,1,1,2,1,1,NaN
5,106,1,1,2,1,1,1,NaN
6,57,2,1,1,2,1,1,NaN
7,59,1,2,1,1,1,1,NaN
8,27,2,1,1,2,1,1,NaN
9,88,1,1,1,1,1,1,NaN
10,4,2,2,1,2,2,1,0.457814277406214
11,102,1,1,2,1,1,1,NaN
12,75,1,1,1,1,1,1,NaN
13,97,1,1,2,1,1,1,NaN
14,92,1,1,2,1,1,1,NaN
15,52,1,1,2,1,1,1,NaN
16,14,1,1,2,1,1,1,NaN
17,44,1,1,2,1,1,1,NaN
18,7,2,1,1,2,1,1,NaN
19,63,1,2,2,1,1,1,NaN
20,56,1,1,1,1,1,1,NaN
21,20,1,2,1,1,1,1,NaN
22,32,1,2,2,1,1,1,NaN
23,45,2,1,1,2,1,1,NaN
24,24,1,2,1,1,1,1,NaN
25,35,1,1,1,1,1,1,NaN
26,79,2,2,2,2,1,1,NaN
27,94,2,1,1,2,1,1,NaN
28,69,2,2,2,2,1,1,NaN
29,34,2,1,1,2,2,1,0.721192524129947
30,40,1,1,2,1,1,1,NaN
31,46,1,2,2,1,1,1,NaN
32,80,1,1,1,1,1,1,NaN
33,90,1,2,1,1,1,1,NaN
34,43,2,2,2,2,1,1,NaN
35,38,2,2,1,2,1,1,NaN
36,41,2,1,1,2,1,1,NaN
37,93,1,1,2,1,2,1,0.677345851840073
38,31,2,1,1,2,1,1,NaN
39,72,1,2,1,1,1,1,NaN
40,81,2,1,1,2,1,1,NaN
41,19,2,1,2,2,1,1,NaN
42,58,1,1,1,1,2,1,0.601201455887349
43,18,1,1,2,1,1,1,NaN
44,100,1,2,1,1,1,1,NaN
45,91,2,2,2,2,1,1,NaN
46,17,2,2,2,2,1,1,NaN
47,99,1,2,1,1,2,1,0.667760309344885
48,1,1,1,2,1,1,1,NaN
49,16,1,2,1,1,1,1,NaN
50,13,2,2,1,2,1,1,NaN
51,77,2,1,2,2,1,1,NaN
52,89,2,1,2,2,1,1,NaN
53,25,2,2,1,2,1,1,NaN
54,104,1,2,2,1,1,1,NaN
55,86,1,2,1,1,1,1,NaN
56,49,2,1,1,2,1,1,NaN
57,5,2,2,2,2,1,1,NaN
58,110,2,2,1,2,1,1,NaN
59,53,2,1,2,2,1,1,NaN
60,8,1,2,1,1,1,1,NaN
61,42,1,2,1,1,1,1,NaN
62,65,1,1,1,1,1,1,NaN
63,101,2,2,2,2,1,1,NaN
64,47,2,2,2,2,1,1,NaN
65,26,1,1,1,1,1,1,NaN
66,105,2,2,2,2,1,1,NaN
67,50,1,2,2,1,1,1,NaN
68,68,1,2,1,1,1,1,NaN
69,96,2,2,2,2,1,1,NaN
70,61,1,1,2,1,1,1,NaN
71,82,1,2,2,1,1,1,NaN
72,62,2,1,2,2,1,1,NaN
73,83,2,2,2,2,1,1,NaN
74,109,1,2,1,1,1,1,NaN
75,70,1,1,2,1,1,1,NaN
76,11,2,1,2,2,1,1,NaN
77,84,1,1,2,1,1,1,NaN
78,66,2,1,1,2,1,1,NaN
79,29,2,2,1,2,1,1,NaN
80,76,2,1,1,2,2,1,0.558020568209031
81,51,2,2,1,2,1,1,NaN
82,28,1,2,1,1,1,1,NaN
83,48,1,1,1,1,1,1,NaN
84,108,1,2,2,1,2,1,0.519353553869223
85,64,2,2,1,2,1,1,NaN
86,85,2,1,2,2,1,1,NaN
87,10,1,1,2,1,1,1,NaN
88,21,2,2,2,2,1,1,NaN
89,103,2,1,1,2,1,1,NaN
90,23,2,1,1,2,1,1,NaN
91,54,1,2,1,1,1,1,NaN
92,74,2,2,2,2,1,1,NaN
93,22,1,1,1,1,1,1,NaN
94,2,2,1,2,2,1,1,NaN
95,33,2,2,1,2,1,1,NaN
96,12,1,2,2,1,1,1,NaN
97,95,1,2,1,1,1,1,NaN
98,36,2,1,1,2,1,1,NaN
99,67,2,1,2,2,2,1,0.74017250698671
100,3,1,2,2,1,1,1,NaN
101,6,1,1,1,1,1,1,NaN
102,60,2,2,2,2,1,1,NaN
103,15,2,1,1,2,1,1,NaN
104,71,2,1,2,2,1,1,NaN
105,55,2,2,2,2,1,1,NaN
106,73,2,2,1,2,2,1,0.676849513069101
107,37,1,2,2,1,1,1,NaN
108,9,2,2,1,2,1,1,NaN
109,87,2,2,2,2,1,1,NaN
110,30,1,1,1,1,1,1,NaN
111,116,2,1,1,2,1,1,NaN
112,119,1,1,2,1,1,1,NaN
113,148,1,2,1,1,1,1,NaN
114,149,2,2,2,2,1,1,NaN
115,201,1,2,1,1,1,1,NaN
116,132,1,1,1,1,1,1,NaN
117,182,2,1,1,2,1,1,NaN
118,138,2,1,2,2,1,1,NaN
119,187,1,2,2,1,1,1,NaN
120,141,1,1,2,1,1,1,NaN
121,114,2,2,2,2,1,1,NaN
122,156,1,2,1,1,1,1,NaN
123,209,2,1,1,2,1,1,NaN
124,113,1,2,2,1,1,1,NaN
125,111,1,1,2,1,1,1,NaN
126,140,2,2,2,2,1,1,NaN
127,139,1,2,2,1,1,1,NaN
128,142,2,1,1,2,1,1,NaN
129,217,1,1,1,1,1,1,NaN
130,131,2,2,2,2,1,1,NaN
131,175,2,2,1,2,1,1,NaN
132,145,1,1,1,1,1,1,NaN
133,181,1,1,1,1,1,1,NaN
134,174,1,2,1,1,1,1,NaN
135,134,1,2,2,1,1,1,NaN
136,196,1,2,2,1,1,1,NaN
137,176,1,1,2,1,1,1,NaN
138,129,2,1,2,2,1,1,NaN
139,184,2,2,2,2,1,1,NaN
140,208,1,1,2,1,1,1,NaN
141,166,2,2,2,2,1,1,NaN
142,218,2,1,1,2,1,1,NaN
143,188,2,2,2,2,1,1,NaN
144,159,1,2,1,1,2,1,0.532609837633572
145,214,2,1,1,2,1,1,NaN
146,206,1,1,2,1,2,1,0.49974407532136
147,190,2,2,2,2,2,1,0.372572483458498
148,186,2,1,1,2,1,1,NaN
149,158,1,1,1,1,1,1,NaN
150,205,1,2,1,1,1,1,NaN
151,192,1,2,1,1,1,1,NaN
152,144,2,2,1,2,1,1,NaN
153,157,2,2,1,2,1,1,NaN
154,200,2,1,1,2,1,1,NaN
155,123,1,1,1,1,1,1,NaN
156,216,2,2,2,2,1,1,NaN
157,180,2,2,1,2,1,1,NaN
158,133,2,1,2,2,1,1,NaN
159,121,1,2,2,1,1,1,NaN
160,204,2,1,1,2,1,1,NaN
161,179,1,2,1,1,1,1,NaN
162,115,1,1,1,1,1,1,NaN
163,147,1,1,2,1,2,1,0.373558137336659
164,153,2,2,2,2,1,1,NaN
165,117,1,2,2,1,1,1,NaN
166,169,2,1,2,2,1,1,NaN
167,124,2,2,1,2,2,1,0.499063950732307
168,210,2,1,2,2,2,1,0.499135357962587
169,154,1,1,1,1,1,1,NaN
170,130,1,2,2,1,1,1,NaN
171,143,1,2,1,1,1,1,NaN
172,220,2,2,1,2,1,1,NaN
173,120,2,1,1,2,1,1,NaN
174,161,1,2,1,1,1,1,NaN
175,199,1,2,2,1,2,1,0.533172023233419
176,164,2,1,1,2,1,1,NaN
177,173,2,1,2,2,1,1,NaN
178,118,2,2,2,2,1,1,NaN
179,151,2,1,2,2,1,1,NaN
180,171,2,2,2,2,1,1,NaN
181,162,2,2,1,2,1,1,NaN
182,170,1,2,2,1,1,1,NaN
183,189,1,1,2,1,1,1,NaN
184,135,2,2,1,2,1,1,NaN
185,172,1,1,2,1,1,1,NaN
186,122,2,2,2,2,1,1,NaN
187,185,1,1,2,1,1,1,NaN
188,126,1,2,2,1,1,1,NaN
189,128,1,1,2,1,1,1,NaN
190,197,2,2,1,2,1,1,NaN
191,212,2,2,1,2,1,1,NaN
192,168,1,2,1,1,2,1,0.48617114147055
193,207,2,2,1,2,1,1,NaN
194,211,1,2,2,1,1,1,NaN
195,137,1,1,2,1,1,1,NaN
196,194,1,1,2,1,1,1,NaN
197,160,2,1,2,2,1,1,NaN
198,125,2,1,1,2,1,1,NaN
199,167,1,1,1,1,1,1,NaN
200,163,1,1,2,1,1,1,NaN
201,191,2,1,2,2,1,1,NaN
202,165,1,2,1,1,1,1,NaN
203,183,1,2,2,1,1,1,NaN
204,136,2,1,1,2,2,1,0.385091868034579
205,202,2,2,1,2,1,1,NaN
206,177,2,1,2,2,1,1,NaN
207,219,1,2,1,1,1,1,NaN
208,213,1,1,1,1,1,1,NaN
209,127,2,2,2,2,1,1,NaN
210,203,1,1,2,1,1,1,NaN
211,193,2,2,1,2,1,1,NaN
212,195,2,1,1,2,1,1,NaN
213,146,2,1,2,2,1,1,NaN
214,198,1,1,1,1,1,1,NaN
215,215,1,2,1,1,1,1,NaN
216,178,2,2,2,2,2,1,0.443380067023099
217,155,2,1,2,2,1,1,NaN
218,150,1,1,1,1,1,1,NaN
219,152,1,2,2,1,1,1,NaN
220,112,2,1,2,2,1,1,NaN
221,245,1,2,2,1,2,1,0.530291151268102
222,286,2,1,1,2,1,1,NaN
223,258,2,1,1,2,1,1,NaN
224,243,1,1,2,1,1,1,NaN
225,224,2,2,1,2,1,1,NaN
226,309,1,1,2,1,1,1,NaN
227,265,1,1,1,1,2,1,0.45375694208451
228,221,1,1,2,1,1,1,NaN
229,251,2,2,2,2,1,1,NaN
230,294,2,1,2,2,1,1,NaN
231,297,1,1,1,1,1,1,NaN
232,230,2,1,2,2,1,1,NaN
233,315,1,2,1,1,1,1,NaN
234,274,1,2,1,1,1,1,NaN
235,296,2,2,2,2,1,1,NaN
236,288,2,2,2,2,1,1,NaN
237,259,2,2,1,2,2,1,0.373686026512587
238,234,1,1,1,1,1,1,NaN
239,225,1,1,1,1,1,1,NaN
240,326,2,1,2,2,1,1,NaN
241,226,2,1,1,2,1,1,NaN
242,231,1,2,1,1,1,1,NaN
243,329,2,1,2,2,2,1,0.466595025316565
244,276,1,1,2,1,1,1,NaN
245,238,2,2,2,2,1,1,NaN
246,316,2,2,2,2,1,1,NaN
247,299,1,2,2,1,1,1,NaN
248,260,1,2,2,1,1,1,NaN
249,244,2,1,1,2,1,1,NaN
250,314,2,1,1,2,1,1,NaN
251,262,1,1,1,1,1,1,NaN
252,273,2,1,1,2,1,1,NaN
253,264,2,2,2,2,2,1,0.414553202921525
254,247,2,2,1,2,1,1,NaN
255,261,2,2,1,2,1,1,NaN
256,327,1,2,2,1,1,1,NaN
257,239,1,1,1,1,1,1,NaN
258,280,2,2,2,2,1,1,NaN
259,301,1,1,1,1,1,1,NaN
260,272,1,1,1,1,1,1,NaN
261,285,1,1,1,1,1,1,NaN
262,325,1,1,1,1,1,1,NaN
263,306,2,1,1,2,1,1,NaN
264,290,2,1,1,2,1,1,NaN
265,322,2,1,2,2,1,1,NaN
266,246,1,2,2,1,1,1,NaN
267,323,1,2,2,1,1,1,NaN
268,233,2,1,2,2,2,1,0.477543158205663
269,268,1,1,1,1,1,1,NaN
270,287,1,2,2,1,1,1,NaN
271,310,2,1,1,2,1,1,NaN
272,330,1,2,2,1,2,1,0.33432659617938
273,269,2,1,1,2,1,1,NaN
274,236,2,1,1,2,1,1,NaN
275,291,1,2,2,1,1,1,NaN
276,257,1,1,1,1,1,1,NaN
277,240,2,1,2,2,1,1,NaN
278,305,1,1,1,1,1,1,NaN
279,267,2,2,2,2,1,1,NaN
280,311,1,2,1,1,1,1,NaN
281,317,1,1,1,1,1,1,NaN
282,295,1,2,1,1,1,1,NaN
283,253,1,1,2,1,2,1,0.376881792650238
284,328,2,2,2,2,1,1,NaN
285,250,1,2,2,1,1,1,NaN
286,275,2,2,1,2,1,1,NaN
287,266,1,2,2,1,1,1,NaN
288,279,1,2,1,1,1,1,NaN
289,302,2,1,2,2,1,1,NaN
290,320,2,2,1,2,1,1,NaN
291,228,2,2,1,2,1,1,NaN
292,222,2,1,2,2,1,1,NaN
293,283,1,2,1,1,1,1,NaN
294,282,2,1,1,2,1,1,NaN
295,241,1,2,1,1,1,1,NaN
296,277,2,1,2,2,1,1,NaN
297,292,2,2,2,2,1,1,NaN
298,308,2,2,2,2,1,1,NaN
299,256,2,2,1,2,1,1,NaN
300,319,1,2,2,1,1,1,NaN
301,303,1,2,1,1,1,1,NaN
302,223,1,2,1,1,1,1,NaN
303,252,1,1,2,1,1,1,NaN
304,304,2,2,1,2,1,1,NaN
305,307,1,2,2,1,1,1,NaN
306,289,1,1,1,1,1,1,NaN
307,237,1,2,1,1,1,1,NaN
308,324,2,2,1,2,1,1,NaN
309,300,2,2,1,2,1,1,NaN
310,229,1,1,2,1,1,1,NaN
311,278,2,1,2,2,2,1,0.515412401620779
312,270,1,2,1,1,1,1,NaN
313,263,2,1,2,2,1,1,NaN
314,313,1,1,2,1,1,1,NaN
315,284,2,2,2,2,1,1,NaN
316,242,2,2,2,2,1,1,NaN
317,298,2,1,1,2,1,1,NaN
318,249,2,1,2,2,1,1,NaN
319,255,1,2,2,1,1,1,NaN
320,232,2,2,1,2,1,1,NaN
321,254,2,1,1,2,1,1,NaN
322,293,1,1,1,1,1,1,NaN
323,248,1,1,2,1,1,1,NaN
324,312,2,2,1,2,1,1,NaN
325,318,2,1,2,2,1,1,NaN
326,271,2,2,1,2,1,1,NaN
327,235,1,1,1,1,2,1,0.449594544486899
328,227,1,2,1,1,1,1,NaN
329,281,1,1,1,1,1,1,NaN
330,321,1,1,1,1,1,1,NaN
331,366,2,1,1,2,1,1,NaN
332,331,1,1,2,1,1,1,NaN
333,433,1,1,2,1,1,1,NaN
334,420,2,1,1,2,1,1,NaN
335,360,2,1,1,2,1,1,NaN
336,339,1,2,1,1,1,1,NaN
337,398,1,1,1,1,1,1,NaN
338,405,2,2,1,2,1,1,NaN
339,342,2,1,2,2,1,1,NaN
340,432,2,2,2,2,1,1,NaN
341,359,1,1,1,1,1,1,NaN
342,388,1,2,2,1,1,1,NaN
343,404,1,2,2,1,1,1,NaN
344,394,1,1,1,1,1,1,NaN
345,426,1,2,2,1,1,1,NaN
346,435,1,2,1,1,1,1,NaN
347,333,1,1,1,1,2,1,0.386374564277503
348,408,1,2,2,1,1,1,NaN
349,440,2,2,1,2,1,1,NaN
350,372,1,2,2,1,1,1,NaN
351,386,1,1,1,1,1,1,NaN
352,390,1,1,1,1,1,1,NaN
353,430,2,1,2,2,1,1,NaN
354,365,1,1,1,1,1,1,NaN
355,345,1,1,1,1,1,1,NaN
356,428,1,1,2,1,1,1,NaN
357,363,2,2,1,2,1,1,NaN
358,437,1,1,2,1,1,1,NaN
359,395,2,1,1,2,1,1,NaN
360,385,2,2,1,2,1,1,NaN
361,396,1,2,2,1,1,1,NaN
362,375,2,1,1,2,1,1,NaN
363,335,1,2,2,1,1,1,NaN
364,352,2,2,1,2,1,1,NaN
365,367,1,2,2,1,1,1,NaN
366,425,2,1,2,2,2,1,0.629142167987084
367,354,1,2,1,1,2,1,0.384937347473169
368,417,2,2,1,2,1,1,NaN
369,427,2,2,1,2,1,1,NaN
370,338,2,1,2,2,1,1,NaN
371,369,1,1,1,1,1,1,NaN
372,379,2,1,2,2,1,1,NaN
373,336,2,2,2,2,1,1,NaN
374,434,2,1,1,2,1,1,NaN
375,374,1,1,1,1,1,1,NaN
376,373,2,2,2,2,1,1,NaN
377,431,1,2,2,1,1,1,NaN
378,436,2,2,2,2,1,1,NaN
379,399,2,1,1,2,1,1,NaN
380,362,1,2,1,1,2,1,0.364968198906354
381,387,2,1,2,2,1,1,NaN
382,368,2,2,1,2,1,1,NaN
383,411,2,1,2,2,1,1,NaN
384,403,2,1,1,2,1,1,NaN
385,380,1,2,2,1,1,1,NaN
386,364,2,2,1,2,2,1,0.403503226933026
387,337,1,1,2,1,1,1,NaN
388,355,1,1,2,1,1,1,NaN
389,401,2,2,2,2,1,1,NaN
390,347,1,2,1,1,1,1,NaN
391,422,2,2,1,2,1,1,NaN
392,391,2,1,1,2,1,1,NaN
393,429,2,1,2,2,2,1,0.427131118012767
394,361,1,2,1,1,1,1,NaN
395,348,2,2,2,2,1,1,NaN
396,378,1,1,1,1,1,1,NaN
397,351,1,2,2,1,1,1,NaN
398,400,1,2,1,1,1,1,NaN
399,414,1,1,1,1,1,1,NaN
400,340,2,2,2,2,1,1,NaN
401,416,1,2,1,1,1,1,NaN
402,383,2,1,2,2,1,1,NaN
403,402,1,1,1,1,1,1,NaN
404,358,2,2,2,2,1,1,NaN
405,357,1,2,1,1,1,1,NaN
406,423,1,1,2,1,1,1,NaN
407,389,2,2,2,2,1,1,NaN
408,397,2,2,1,2,1,1,NaN
409,413,2,2,1,2,1,1,NaN
410,393,2,2,2,2,1,1,NaN
411,381,2,2,2,2,1,1,NaN
412,438,2,1,2,2,1,1,NaN
413,410,1,1,1,1,1,1,NaN
414,409,2,2,2,2,1,1,NaN
415,392,1,2,1,1,1,1,NaN
416,349,1,1,1,1,1,1,NaN
417,341,1,1,1,1,1,1,NaN
418,377,2,2,2,2,1,1,NaN
419,350,2,1,1,2,1,1,NaN
420,371,2,1,1,2,1,1,NaN
421,421,1,2,2,1,1,1,NaN
422,356,2,1,2,2,1,1,NaN
423,406,1,1,1,1,1,1,NaN
424,424,2,1,2,2,1,1,NaN
425,382,1,1,2,1,1,1,NaN
426,332,2,1,1,2,1,1,NaN
427,415,2,1,1,2,1,1,NaN
428,418,1,1,2,1,1,1,NaN
429,334,1,2,2,1,2,1,0.517548180125232
430,407,2,1,1,2,1,1,NaN
431,439,1,2,2,1,1,1,NaN
432,370,2,2,1,2,2,1,0.420856939421355
433,412,1,2,1,1,1,1,NaN
434,376,1,2,2,1,1,1,NaN
435,384,1,2,2,1,1,1,NaN
436,419,2,2,2,2,2,1,0.351558857848431
437,343,1,2,1,1,1,1,NaN
438,353,1,1,1,1,2,1,0.343261571995754
439,344,2,2,1,2,1,1,NaN
440,346,2,1,1,2,1,1,NaN
