PresOrder,TrialNumber,Far_Close,Hallway,Perspective,Phase,Catch_Trial,Response,Response_Time
1,110,2,2,1,2,1,1,NaN
2,69,1,1,2,1,1,1,NaN
3,70,2,1,1,2,1,1,NaN
4,51,2,1,2,2,1,1,NaN
5,84,1,2,1,1,1,1,NaN
6,87,2,1,2,2,1,1,NaN
7,53,2,2,2,2,1,1,NaN
8,21,1,1,2,1,1,1,NaN
9,27,1,2,1,1,1,1,NaN
10,16,2,2,2,2,1,1,NaN
11,22,2,1,2,2,1,1,NaN
12,32,1,2,2,1,1,1,NaN
13,33,2,2,2,2,1,1,NaN
14,98,1,1,1,1,1,1,NaN
15,19,1,2,1,1,1,1,NaN
16,60,1,1,1,1,1,1,NaN
17,50,1,1,1,1,1,1,NaN
18,25,1,1,2,1,1,1,NaN
19,65,2,2,1,2,2,1,0.637186418200145
20,61,2,1,2,2,1,1,NaN
21,58,1,2,1,1,1,1,NaN
22,34,1,1,2,1,1,1,NaN
23,31,2,1,1,2,1,1,NaN
24,8,2,1,2,2,1,1,NaN
25,72,2,2,1,2,1,1,NaN
26,59,2,2,1,2,1,1,NaN
27,10,2,2,1,2,2,1,0.612050122173969
28,92,1,2,1,1,1,1,NaN
29,100,1,2,2,1,1,1,NaN
30,38,1,1,1,1,1,1,NaN
31,89,2,2,1,2,1,1,NaN
32,9,1,2,1,1,1,1,NaN
33,30,1,1,1,1,1,1,NaN
34,93,2,2,2,2,1,1,NaN
35,24,2,2,1,2,1,1,NaN
36,45,2,2,1,2,1,1,NaN
37,37,2,2,1,2,1,1,NaN
38,15,2,1,2,2,2,1,0.632020792443654
39,88,1,2,2,1,1,1,NaN
40,41,2,2,1,2,1,1,NaN
41,26,2,1,1,2,1,1,NaN
42,80,1,2,2,1,1,1,NaN
43,43,2,1,2,2,1,1,NaN
44,17,1,1,2,1,1,1,NaN
45,62,1,2,2,1,1,1,NaN
46,12,1,1,1,1,1,1,NaN
47,76,2,2,1,2,1,1,NaN
48,71,1,2,1,1,1,1,NaN
49,35,2,1,1,2,1,1,NaN
50,107,2,1,2,2,1,1,NaN
51,106,1,1,1,1,1,1,NaN
52,56,1,1,1,1,2,0,NaN
53,4,1,2,2,1,1,1,NaN
54,73,1,1,2,1,1,1,NaN
55,14,1,2,2,1,1,1,NaN
56,49,2,2,1,2,1,1,NaN
57,2,1,1,1,1,1,1,NaN
58,94,1,1,1,1,1,1,NaN
59,85,2,2,1,2,1,1,NaN
60,23,1,2,2,1,1,1,NaN
61,20,2,2,1,2,1,1,NaN
62,103,2,1,1,2,1,1,NaN
63,44,1,2,2,1,1,1,NaN
64,1,1,1,1,1,2,1,0.608911706745857
65,104,1,2,2,1,1,1,NaN
66,64,1,1,1,1,1,1,NaN
67,66,2,1,1,2,1,1,NaN
68,40,1,2,1,1,1,1,NaN
69,28,1,1,1,1,2,1,0.679039078298956
70,91,2,1,1,2,1,1,NaN
71,83,2,1,2,2,1,1,NaN
72,95,2,1,1,2,1,1,NaN
73,36,1,2,1,1,1,1,NaN
74,99,2,1,1,2,1,1,NaN
75,6,2,2,1,2,1,1,NaN
76,79,2,1,2,2,1,1,NaN
77,109,1,2,1,1,1,1,NaN
78,86,1,1,1,1,1,1,NaN
79,54,2,1,1,2,2,1,0.627822093651048
80,81,2,2,2,2,1,1,NaN
81,29,2,2,1,2,1,1,NaN
82,74,2,1,1,2,1,1,NaN
83,39,2,1,2,2,1,1,NaN
84,48,1,2,1,1,1,1,NaN
85,82,1,1,1,1,1,1,NaN
86,5,1,2,1,1,2,1,0.604674963004072
87,47,2,1,2,2,1,1,NaN
88,57,2,1,2,2,1,1,NaN
89,55,1,1,2,1,1,1,NaN
90,11,2,2,1,2,1,1,NaN
91,101,2,2,1,2,1,1,NaN
92,46,1,1,2,1,1,1,NaN
93,7,1,1,1,1,1,1,NaN
94,97,2,2,2,2,1,1,NaN
95,96,1,2,2,1,1,1,NaN
96,63,2,2,2,2,1,1,NaN
97,102,1,1,1,1,1,1,NaN
98,3,2,1,1,2,1,1,NaN
99,42,1,1,2,1,1,1,NaN
100,75,1,2,2,1,1,1,NaN
101,108,2,1,1,2,2,1,0.586831005217391
102,67,1,2,2,1,1,1,NaN
103,13,2,1,2,2,1,1,NaN
104,90,1,1,2,1,1,1,NaN
105,52,1,2,1,1,1,1,NaN
106,78,1,1,2,1,1,1,NaN
107,77,1,2,1,1,2,1,0.628205176981282
108,105,2,2,2,2,1,1,NaN
109,18,2,1,2,2,1,1,NaN
110,68,2,2,2,2,1,1,NaN
111,139,1,1,2,1,1,1,NaN
112,176,2,1,1,2,1,1,NaN
113,153,1,2,1,1,1,1,NaN
114,203,1,1,2,1,1,1,NaN
115,151,1,1,2,1,1,1,NaN
116,197,1,2,2,1,1,1,NaN
117,181,2,1,1,2,1,1,NaN
118,117,1,2,1,1,1,1,NaN
119,213,2,2,2,2,2,1,0.569355498126242
120,200,2,1,2,2,1,1,NaN
121,178,1,2,2,1,1,1,NaN
122,190,2,2,2,2,2,1,0.559454154514242
123,127,2,2,2,2,1,1,NaN
124,175,1,1,1,1,1,1,NaN
125,156,2,1,2,2,1,1,NaN
126,192,2,1,1,2,1,1,NaN
127,155,1,1,1,1,1,1,NaN
128,209,2,1,2,2,1,1,NaN
129,187,1,2,2,1,1,1,NaN
130,149,1,2,1,1,1,1,NaN
131,218,2,1,2,2,1,1,NaN
132,215,1,2,1,1,1,1,NaN
133,204,2,1,1,2,1,1,NaN
134,114,2,2,1,2,1,1,NaN
135,164,2,1,2,2,1,1,NaN
136,131,1,1,1,1,2,1,0.621934199225507
137,174,2,2,2,2,1,1,NaN
138,138,2,2,1,2,1,1,NaN
139,148,2,1,2,2,1,1,NaN
140,168,2,1,2,2,1,1,NaN
141,184,1,1,1,1,1,1,NaN
142,150,2,2,2,2,1,1,NaN
143,220,2,2,1,2,1,1,NaN
144,171,1,1,1,1,1,1,NaN
145,152,2,1,2,2,1,1,NaN
146,169,1,2,1,1,1,1,NaN
147,157,1,2,1,1,1,1,NaN
148,141,1,2,2,1,1,1,NaN
149,193,1,2,2,1,1,1,NaN
150,167,1,1,1,1,1,1,NaN
151,198,2,2,1,2,1,1,NaN
152,162,2,2,1,2,1,1,NaN
153,118,2,2,1,2,1,1,NaN
154,142,2,2,2,2,1,1,NaN
155,160,2,1,1,2,1,1,NaN
156,196,2,1,2,2,1,1,NaN
157,128,1,1,1,1,1,1,NaN
158,214,2,1,2,2,1,1,NaN
159,136,2,1,1,2,1,1,NaN
160,115,1,1,1,1,1,1,NaN
161,216,2,2,2,2,1,1,NaN
162,132,2,2,2,2,2,1,0.635777584568132
163,158,2,2,1,2,1,1,NaN
164,186,1,1,1,1,2,1,0.548230310057988
165,199,1,1,2,1,1,1,NaN
166,180,1,1,1,1,1,1,NaN
167,120,1,2,1,1,2,1,0.470051164593315
168,182,1,2,1,1,1,1,NaN
169,217,1,1,2,1,1,1,NaN
170,205,2,1,2,2,2,1,0.50021905110043
171,112,2,1,1,2,1,0,0.909615743119502
172,125,2,1,1,2,1,1,NaN
173,126,1,2,2,1,1,1,NaN
174,189,1,2,1,1,2,1,0.513229837422841
175,134,2,2,1,2,1,1,NaN
176,144,2,1,2,2,1,1,NaN
177,135,1,1,2,1,1,1,NaN
178,206,1,2,2,1,1,1,NaN
179,207,2,2,1,2,1,1,NaN
180,194,2,2,2,2,1,1,NaN
181,147,1,1,2,1,1,1,NaN
182,154,2,2,1,2,1,1,NaN
183,129,2,1,2,2,1,1,NaN
184,161,1,2,2,1,1,1,NaN
185,111,1,1,1,1,1,1,NaN
186,195,1,1,2,1,1,1,NaN
187,116,2,1,1,2,1,1,NaN
188,172,2,1,1,2,1,1,NaN
189,202,2,2,1,2,1,1,NaN
190,145,1,2,2,1,1,1,NaN
191,124,1,1,1,1,1,1,NaN
192,121,2,1,1,2,1,1,NaN
193,201,1,2,2,1,1,1,NaN
194,122,1,2,1,1,1,1,NaN
195,165,1,2,2,1,1,1,NaN
196,146,2,2,1,2,1,1,NaN
197,130,1,2,2,1,2,1,0.610686942469329
198,159,1,1,1,1,1,1,NaN
199,170,2,2,2,2,1,1,NaN
200,219,1,2,2,1,1,1,NaN
201,183,2,2,2,2,1,1,NaN
202,113,1,2,2,1,1,1,NaN
203,143,1,1,2,1,1,1,NaN
204,208,1,1,1,1,1,1,NaN
205,185,2,1,1,2,1,1,NaN
206,210,1,2,1,1,1,1,NaN
207,177,2,1,2,2,2,1,0.540235603577457
208,188,2,2,1,2,1,1,NaN
209,137,1,2,2,1,1,1,NaN
210,166,2,2,1,2,1,1,NaN
211,133,1,2,1,1,1,1,NaN
212,179,2,2,2,2,1,1,NaN
213,211,2,2,1,2,1,1,NaN
214,119,1,1,1,1,1,1,NaN
215,173,1,2,1,1,1,1,NaN
216,212,1,1,1,1,1,1,NaN
217,163,1,1,1,1,1,1,NaN
218,140,2,1,1,2,1,1,NaN
219,123,2,2,2,2,1,1,NaN
220,191,1,1,1,1,1,1,NaN
221,285,1,1,1,1,1,1,NaN
222,293,1,1,2,1,2,1,0.556439238847815
223,250,2,2,1,2,1,1,NaN
224,288,2,2,2,2,1,1,NaN
225,308,2,1,2,2,1,1,NaN
226,317,2,1,1,2,2,1,0.515551457108813
227,271,2,2,1,2,1,1,NaN
228,330,2,2,2,2,1,1,NaN
229,256,2,1,1,2,1,0,1.00399940181524
230,314,2,1,2,2,1,1,NaN
231,263,2,2,2,2,1,1,NaN
232,307,1,1,1,1,1,1,NaN
233,262,1,2,2,1,1,1,NaN
234,282,2,1,1,2,1,1,NaN
235,290,2,1,2,2,1,1,NaN
236,230,1,1,2,1,2,1,0.61479550403601
237,328,2,1,1,2,1,1,NaN
238,235,2,1,2,2,1,1,NaN
239,329,1,2,2,1,1,1,NaN
240,279,1,2,2,1,1,1,NaN
241,298,2,2,1,2,1,1,NaN
242,303,1,1,1,1,1,1,NaN
243,312,2,2,2,2,1,1,NaN
244,315,1,2,1,1,1,1,NaN
245,254,2,2,1,2,1,1,NaN
246,316,2,2,2,2,1,1,NaN
247,319,2,1,1,2,1,1,NaN
248,265,2,1,2,2,1,1,NaN
249,226,2,1,2,2,1,1,NaN
250,289,1,1,2,1,1,1,NaN
251,309,1,1,1,1,2,1,0.748994369641878
252,283,1,2,2,1,1,1,NaN
253,224,2,2,2,2,1,1,NaN
254,231,2,1,1,2,1,1,NaN
255,291,1,2,1,1,1,1,NaN
256,276,2,2,2,2,1,1,NaN
257,240,2,1,2,2,2,1,0.546950243951869
258,221,1,1,1,1,1,1,NaN
259,229,1,1,1,1,1,1,NaN
260,321,2,2,2,2,1,1,NaN
261,222,2,1,2,2,1,1,NaN
262,270,1,2,2,1,1,1,NaN
263,255,1,1,2,1,1,1,NaN
264,278,2,1,2,2,1,1,NaN
265,233,2,2,2,2,1,1,NaN
266,236,1,2,1,1,1,1,NaN
267,234,1,1,1,1,1,1,NaN
268,304,2,1,2,2,1,1,NaN
269,248,2,1,1,2,1,1,NaN
270,273,2,1,2,2,1,1,NaN
271,313,1,1,2,1,1,1,NaN
272,295,2,1,2,2,1,1,NaN
273,242,2,2,1,2,1,1,NaN
274,266,1,2,2,1,1,1,NaN
275,274,1,2,1,1,2,1,0.565338537096977
276,320,1,2,1,1,1,1,NaN
277,247,1,1,2,1,1,1,NaN
278,322,2,1,1,2,2,1,0.53728097450221
279,267,2,2,1,2,1,1,NaN
280,286,2,1,1,2,1,1,NaN
281,326,2,2,1,2,1,1,NaN
282,246,2,2,1,2,1,1,NaN
283,243,1,1,1,1,1,1,NaN
284,227,1,2,1,1,1,1,NaN
285,257,2,2,2,2,2,1,0.471944924967829
286,275,1,2,1,1,1,1,NaN
287,258,1,2,1,1,1,1,NaN
288,323,1,1,1,1,1,1,NaN
289,244,2,1,1,2,1,1,NaN
290,302,2,2,2,2,1,1,NaN
291,277,1,1,1,1,1,1,NaN
292,297,2,2,2,2,2,1,0.879426200277521
293,325,1,2,1,1,1,1,NaN
294,253,1,2,2,1,1,1,NaN
295,318,1,1,2,1,1,1,NaN
296,261,2,1,1,2,1,1,NaN
297,225,1,1,1,1,1,1,NaN
298,245,1,2,2,1,1,1,NaN
299,264,1,1,1,1,1,1,NaN
300,252,2,1,2,2,1,1,NaN
301,306,2,2,2,2,1,1,NaN
302,296,1,2,1,1,1,1,NaN
303,300,2,1,1,2,1,1,NaN
304,249,1,2,2,1,1,1,NaN
305,251,1,1,2,1,1,1,NaN
306,228,2,2,1,2,1,1,NaN
307,241,1,2,2,1,1,1,NaN
308,239,2,1,1,2,1,1,NaN
309,232,1,2,1,1,1,1,NaN
310,268,1,1,1,1,1,1,NaN
311,327,1,1,2,1,1,1,NaN
312,281,1,1,2,1,1,1,NaN
313,280,2,2,2,2,1,1,NaN
314,269,2,1,1,2,1,1,NaN
315,284,2,2,1,2,1,1,NaN
316,324,2,1,1,2,1,1,NaN
317,223,1,2,1,1,1,1,NaN
318,260,1,1,1,1,1,1,NaN
319,301,1,2,2,1,1,1,NaN
320,237,2,2,1,2,1,1,NaN
321,310,1,2,1,1,1,1,NaN
322,294,1,1,1,1,1,1,NaN
323,311,1,2,1,1,2,1,0.559960152313579
324,292,2,2,1,2,1,1,NaN
325,238,1,1,1,1,1,1,NaN
326,272,1,1,2,1,1,1,NaN
327,287,1,2,2,1,1,1,NaN
328,299,1,1,2,1,1,1,NaN
329,305,1,2,2,1,1,1,NaN
330,259,2,2,1,2,1,1,NaN
331,388,1,1,1,1,1,1,NaN
332,351,1,2,1,1,2,1,0.57068882715248
333,421,1,1,2,1,1,1,NaN
334,428,2,2,1,2,1,1,NaN
335,427,1,2,1,1,1,1,NaN
336,394,1,2,2,1,1,1,NaN
337,342,1,2,1,1,1,1,NaN
338,416,1,1,1,1,1,1,NaN
339,430,2,1,2,2,1,1,NaN
340,435,1,2,1,1,1,1,NaN
341,345,2,1,2,2,1,1,NaN
342,431,1,2,1,1,1,1,NaN
343,422,2,1,1,2,1,1,NaN
344,358,2,2,2,2,1,1,NaN
345,336,1,1,1,1,1,1,NaN
346,348,1,1,1,1,1,1,NaN
347,432,2,2,2,2,1,1,NaN
348,397,1,1,2,1,1,1,NaN
349,393,2,1,2,2,1,1,NaN
350,433,1,1,1,1,1,1,NaN
351,410,2,2,2,2,1,1,NaN
352,413,1,2,1,1,1,1,NaN
353,338,1,2,2,1,1,1,NaN
354,360,2,1,2,2,1,1,NaN
355,333,1,2,2,1,1,1,NaN
356,354,1,2,1,1,2,1,0.481262717628852
357,372,2,1,2,2,1,1,NaN
358,439,1,2,1,1,1,1,NaN
359,400,1,2,2,1,1,1,NaN
360,382,1,2,1,1,1,1,NaN
361,390,1,2,2,1,1,1,NaN
362,436,2,2,2,2,1,1,NaN
363,408,2,1,1,2,1,1,NaN
364,438,2,1,2,2,1,1,NaN
365,337,2,1,1,2,1,1,NaN
366,375,1,1,1,1,1,1,NaN
367,341,2,1,2,2,1,1,NaN
368,371,1,1,1,1,1,1,NaN
369,429,1,1,1,1,1,1,NaN
370,353,1,1,1,1,1,1,NaN
371,418,1,2,1,1,1,1,NaN
372,411,1,1,2,1,1,1,NaN
373,374,2,2,1,2,1,1,NaN
374,340,1,1,1,1,1,1,NaN
375,346,1,2,1,1,1,1,NaN
376,434,2,1,1,2,1,1,NaN
377,391,2,2,1,2,1,1,NaN
378,424,2,2,2,2,1,1,NaN
379,376,2,1,1,2,1,1,NaN
380,409,1,2,2,1,1,1,NaN
381,420,2,2,1,2,2,1,0.56610060663661
382,361,1,2,2,1,1,1,NaN
383,362,2,2,1,2,1,1,NaN
384,339,2,2,1,2,1,1,NaN
385,377,1,2,2,1,1,1,NaN
386,417,2,1,1,2,1,1,NaN
387,367,1,1,2,1,1,1,NaN
388,423,1,2,1,1,1,1,NaN
389,396,2,2,1,2,1,1,NaN
390,357,1,1,2,1,2,1,0.607203488660161
391,368,2,1,2,2,1,1,NaN
392,407,1,1,1,1,1,1,NaN
393,352,2,2,2,2,1,1,NaN
394,387,2,2,2,2,1,1,NaN
395,331,1,1,1,1,1,1,NaN
396,437,1,1,1,1,1,1,NaN
397,381,2,1,2,2,1,1,NaN
398,370,2,2,1,2,1,1,NaN
399,426,2,1,1,2,1,1,NaN
400,440,2,2,1,2,1,1,NaN
401,415,2,2,2,2,2,1,0.581348143168725
402,347,2,2,1,2,1,1,NaN
403,344,1,1,2,1,1,1,NaN
404,363,1,1,1,1,1,1,NaN
405,399,2,1,1,2,1,1,NaN
406,359,1,1,2,1,1,1,NaN
407,386,1,2,1,1,1,1,NaN
408,369,1,2,1,1,1,1,NaN
409,366,2,2,1,2,1,1,NaN
410,402,2,2,1,2,1,1,NaN
411,406,2,2,2,2,1,1,NaN
412,414,2,2,1,2,1,1,NaN
413,332,2,1,2,2,1,1,NaN
414,389,2,1,2,2,1,1,NaN
415,379,2,2,1,2,1,1,NaN
416,384,1,1,1,1,1,1,NaN
417,383,2,2,1,2,1,1,NaN
418,425,1,1,1,1,1,1,NaN
419,395,1,1,2,1,2,1,0.609340444032568
420,405,1,2,1,1,1,1,NaN
421,419,2,2,2,2,1,1,NaN
422,404,2,1,2,2,1,1,NaN
423,373,1,2,1,1,1,1,NaN
424,412,2,1,2,2,1,1,NaN
425,364,2,1,1,2,1,1,NaN
426,356,1,2,2,1,1,1,NaN
427,334,2,2,1,2,1,1,NaN
428,401,2,2,2,2,2,1,0.495437679302995
429,365,1,2,1,1,1,1,NaN
430,398,1,2,2,1,2,1,0.586277304930263
431,378,2,1,1,2,2,1,0.434114786272403
432,335,2,1,1,2,2,1,0.420161070593167
433,403,1,1,2,1,1,1,NaN
434,385,2,1,1,2,1,1,NaN
435,343,2,2,1,2,1,1,NaN
436,392,1,1,1,1,1,1,NaN
437,349,2,1,1,2,1,1,NaN
438,380,1,1,1,1,1,1,NaN
439,355,2,1,2,2,1,1,NaN
440,350,1,2,1,1,1,1,NaN
