PresOrder,TrialNumber,Far_Close,Hallway,Perspective,Phase,Catch_Trial,Response,Response_Time
1,39,2,1,2,2,1,1,NaN
2,67,2,1,1,2,1,1,NaN
3,51,1,1,2,1,1,1,NaN
4,80,1,2,1,1,1,1,NaN
5,1,1,1,1,1,1,1,NaN
6,68,1,2,1,1,1,1,NaN
7,10,1,1,2,1,1,1,NaN
8,56,1,1,2,1,2,1,0.479030094305926
9,94,1,1,1,1,1,1,NaN
10,14,2,2,2,2,1,1,NaN
11,92,1,2,2,1,1,1,NaN
12,71,2,1,2,2,1,0,0.0675910274294438
13,31,2,2,1,2,1,1,NaN
14,27,1,1,2,1,1,1,NaN
15,89,2,2,2,2,1,0,0.88011678107614
16,99,2,1,1,2,1,1,NaN
17,103,1,1,2,1,1,1,NaN
18,2,2,1,1,2,1,1,NaN
19,35,1,2,1,1,1,1,NaN
20,74,1,1,2,1,1,1,NaN
21,97,2,2,1,2,1,1,NaN
22,47,1,1,2,1,1,1,NaN
23,66,1,1,1,1,1,1,NaN
24,21,1,2,1,1,1,1,NaN
25,102,2,2,1,2,1,1,NaN
26,108,2,1,1,2,1,1,NaN
27,63,2,1,1,2,1,1,NaN
28,104,2,1,1,2,1,1,NaN
29,8,1,2,2,1,1,1,NaN
30,13,1,2,1,1,1,1,NaN
31,95,2,1,1,2,1,1,NaN
32,32,1,1,1,1,1,1,NaN
33,15,1,1,1,1,1,1,NaN
34,83,2,1,2,2,1,1,NaN
35,53,1,2,1,1,1,1,NaN
36,50,2,2,2,2,1,1,NaN
37,43,1,1,2,1,1,1,NaN
38,93,2,2,1,2,1,1,NaN
39,82,1,1,2,1,1,1,NaN
40,86,1,1,1,1,1,1,NaN
41,100,1,2,1,1,1,1,NaN
42,24,2,1,2,2,1,1,NaN
43,79,2,1,2,2,1,1,NaN
44,106,2,2,2,2,1,0,0.127338606587728
45,12,2,1,2,2,2,1,0.413911124169317
46,57,1,1,2,1,1,1,NaN
47,46,2,2,2,2,1,1,NaN
48,58,2,1,1,2,1,1,NaN
49,33,2,1,2,2,1,1,NaN
50,64,1,2,2,1,1,1,NaN
51,107,1,1,1,1,1,1,NaN
52,90,1,1,1,1,1,0,0.0245323957442452
53,70,1,1,1,1,1,1,NaN
54,77,2,2,1,2,1,0,0.365264244106584
55,25,1,2,1,1,1,1,NaN
56,88,1,2,1,1,1,1,NaN
57,98,1,1,1,1,1,0,0.115438081213142
58,42,2,2,2,2,1,0,0.629056199135448
59,16,2,1,2,2,1,1,NaN
60,85,2,2,1,2,1,1,NaN
61,65,2,2,2,2,1,1,NaN
62,52,2,1,2,2,1,1,NaN
63,61,2,1,1,2,2,1,0.723567687604373
64,26,2,2,2,2,1,1,NaN
65,101,2,2,2,2,2,1,0.139868340342218
66,54,1,1,1,1,2,1,0.344960421329233
67,17,1,2,1,1,1,1,NaN
68,23,1,1,2,1,1,1,NaN
69,28,2,1,1,2,1,1,NaN
70,6,2,1,2,2,1,1,NaN
71,49,1,2,1,1,1,1,NaN
72,73,2,2,2,2,1,1,NaN
73,55,2,2,1,2,1,1,NaN
74,72,1,2,2,1,1,0,0.766563398450671
75,20,2,1,2,2,1,1,NaN
76,38,1,1,1,1,1,0,0.127242323071187
77,30,1,2,1,1,1,1,NaN
78,81,2,2,2,2,1,1,NaN
79,48,2,1,1,2,1,1,NaN
80,34,1,2,2,1,2,1,0.385085771344166
81,75,2,1,2,2,1,1,NaN
82,3,1,2,1,1,1,1,NaN
83,37,1,1,1,1,2,1,0.430831854449934
84,41,1,2,1,1,1,1,NaN
85,60,2,2,1,2,1,1,NaN
86,45,1,2,1,1,1,0,0.22820890420553
87,69,2,2,2,2,1,0,0.524480303143719
88,62,1,1,2,1,1,1,NaN
89,4,2,2,2,2,1,1,NaN
90,40,2,2,1,2,2,1,0.526570152929708
91,5,1,1,2,1,1,1,NaN
92,7,2,1,1,2,2,1,0.370377513321728
93,76,1,2,1,1,1,1,NaN
94,19,1,1,1,1,1,0,0.0886885307318153
95,87,2,1,1,2,1,1,NaN
96,22,2,2,1,2,1,1,NaN
97,9,2,2,2,2,1,1,NaN
98,96,1,2,2,1,1,1,NaN
99,109,1,2,1,1,1,1,NaN
100,59,1,2,2,1,1,1,NaN
101,84,1,2,2,1,1,1,NaN
102,44,2,1,1,2,1,1,NaN
103,105,1,2,1,1,1,1,NaN
104,36,2,2,1,2,1,1,NaN
105,11,2,1,1,2,1,1,NaN
106,78,1,1,1,1,1,1,NaN
107,29,1,2,1,1,2,1,0.353968051431366
108,110,2,2,2,2,1,1,NaN
109,18,2,2,2,2,1,1,NaN
110,91,2,1,1,2,1,1,NaN
111,180,1,1,1,1,1,1,NaN
112,200,2,2,2,2,1,0,0.737399736375664
113,218,2,1,1,2,1,1,NaN
114,187,1,1,1,1,2,1,0.344787169533447
115,144,1,2,1,1,2,1,0.299526015864103
116,216,2,2,1,2,1,1,NaN
117,217,1,1,1,1,1,1,NaN
118,197,1,1,1,1,1,1,NaN
119,123,2,2,2,2,1,1,NaN
120,164,2,2,2,2,1,1,NaN
121,151,1,1,1,1,1,1,NaN
122,205,1,1,1,1,1,1,NaN
123,162,2,2,2,2,2,0,NaN
124,208,2,2,2,2,1,0,0.497431659188805
125,158,2,2,2,2,1,1,NaN
126,115,2,2,1,2,1,1,NaN
127,185,2,1,2,2,1,1,NaN
128,172,1,2,2,1,1,1,NaN
129,166,1,1,2,1,1,0,0.922110733652517
130,163,1,2,2,1,1,1,NaN
131,213,1,1,2,1,1,1,NaN
132,167,2,1,2,2,1,1,NaN
133,127,2,2,2,2,1,1,NaN
134,210,2,1,2,2,1,1,NaN
135,155,1,1,1,1,1,1,NaN
136,181,2,1,2,2,1,1,NaN
137,117,2,1,2,2,1,1,NaN
138,134,1,2,2,1,1,0,0.0745512427311041
139,143,1,2,1,1,1,1,NaN
140,188,2,2,1,2,1,0,0.200950719228786
141,132,1,1,1,1,1,1,NaN
142,193,1,1,2,1,1,1,NaN
143,133,2,1,1,2,1,1,NaN
144,138,1,2,2,1,1,0,0.466758774970003
145,219,1,2,1,1,1,1,NaN
146,122,1,2,2,1,1,1,NaN
147,139,1,2,1,1,2,1,0.364599331809586
148,203,1,2,2,1,1,1,NaN
149,207,1,2,1,1,1,1,NaN
150,159,1,1,2,1,1,1,NaN
151,129,2,1,1,2,1,1,NaN
152,191,1,2,1,1,1,1,NaN
153,130,1,2,1,1,1,0,0.112250774951463
154,189,1,1,1,1,1,1,NaN
155,152,2,1,1,2,1,0,0.902896465662707
156,174,1,1,2,1,1,1,NaN
157,140,2,2,2,2,1,1,NaN
158,113,2,1,2,2,1,1,NaN
159,175,1,2,2,1,2,0,NaN
160,116,1,1,1,1,1,1,NaN
161,186,1,2,2,1,1,1,NaN
162,220,2,2,2,2,1,1,NaN
163,182,1,2,1,1,1,1,NaN
164,135,2,2,2,2,1,1,NaN
165,184,1,1,2,1,1,1,NaN
166,131,2,2,2,2,1,0,0.287057154362628
167,194,2,1,1,2,1,1,NaN
168,198,2,1,2,2,1,0,0.0169927234255738
169,111,2,1,1,2,2,1,0.16230883771459
170,183,2,2,1,2,1,1,NaN
171,192,2,2,2,2,1,0,0.222380971334132
172,209,1,1,1,1,1,1,NaN
173,147,1,1,2,1,1,1,NaN
174,146,2,2,2,2,1,1,NaN
175,157,1,2,2,1,1,1,NaN
176,211,1,2,2,1,1,1,NaN
177,153,1,2,1,1,1,1,NaN
178,165,1,1,1,1,2,1,0.134026360026837
179,141,1,1,2,1,1,0,0.404740485199
180,145,2,2,1,2,2,1,0.45823665961143
181,202,2,1,1,2,1,1,NaN
182,118,1,2,1,1,1,1,NaN
183,156,2,1,2,2,1,0,0.85270202564061
184,170,1,1,2,1,1,1,NaN
185,120,1,1,1,1,1,0,0.247276844662338
186,149,1,2,2,1,1,1,NaN
187,125,2,1,1,2,1,1,NaN
188,173,2,2,1,2,1,1,NaN
189,176,2,1,2,2,1,1,NaN
190,171,2,1,1,2,1,0,0.220420182429734
191,179,2,2,2,2,1,0,0.88196021530166
192,154,2,2,1,2,1,1,NaN
193,124,1,1,2,1,1,1,NaN
194,201,1,1,2,1,1,1,NaN
195,214,2,1,1,2,1,1,NaN
196,148,2,1,2,2,1,1,NaN
197,114,1,2,2,1,1,1,NaN
198,196,2,2,1,2,1,1,NaN
199,212,2,2,1,2,1,1,NaN
200,136,1,1,1,1,1,1,NaN
201,160,2,1,1,2,1,1,NaN
202,190,2,1,2,2,1,1,NaN
203,168,1,2,2,1,1,1,NaN
204,150,2,2,1,2,1,1,NaN
205,204,2,2,1,2,1,1,NaN
206,169,2,2,2,2,1,1,NaN
207,177,1,2,2,1,1,1,NaN
208,195,1,2,2,1,1,0,0.93469138938417
209,137,2,1,1,2,1,1,NaN
210,112,1,1,1,1,1,1,NaN
211,161,2,1,1,2,2,0,NaN
212,128,1,1,2,1,1,1,NaN
213,199,1,2,1,1,1,1,NaN
214,119,2,2,1,2,1,1,NaN
215,178,2,2,2,2,2,1,0.358358462648539
216,121,2,1,1,2,1,1,NaN
217,206,2,1,1,2,1,1,NaN
218,142,2,1,1,2,1,0,0.715725409951119
219,126,1,2,1,1,1,0,0.601852740655886
220,215,1,2,2,1,1,1,NaN
221,278,1,2,1,1,1,1,NaN
222,270,1,2,2,1,1,1,NaN
223,308,1,2,2,1,2,0,NaN
224,318,2,1,1,2,1,1,NaN
225,248,2,1,2,2,1,1,NaN
226,310,2,1,1,2,1,1,NaN
227,326,1,1,1,1,1,1,NaN
228,242,1,1,2,1,1,0,0.114340039426679
229,328,1,1,1,1,2,0,NaN
230,275,2,2,2,2,1,0,0.459021853137529
231,330,2,2,1,2,1,0,0.635394229779195
232,274,1,2,2,1,1,1,NaN
233,240,1,2,2,1,1,1,NaN
234,264,2,1,2,2,1,0,0.435097594609033
235,227,1,2,2,1,1,0,0.327565589852384
236,309,1,1,1,1,1,1,NaN
237,231,2,1,1,2,1,1,NaN
238,317,1,1,2,1,1,0,0.682243037150329
239,259,1,1,1,1,1,1,NaN
240,282,1,1,2,1,2,1,0.321522555512274
241,292,2,1,2,2,1,0,0.948579920584962
242,327,2,1,2,2,1,0,0.855889039248723
243,244,1,2,2,1,1,1,NaN
244,311,1,2,2,1,1,0,0.450977350839821
245,295,2,2,2,2,1,0,1.0361227067533
246,305,2,1,1,2,1,1,NaN
247,249,1,2,2,1,1,0,0.312383815942667
248,221,1,1,1,1,1,0,0.43796385827045
249,266,1,2,2,1,1,0,0.495245818543481
250,314,2,1,1,2,1,0,0.849056421553541
251,312,2,2,2,2,1,1,NaN
252,276,1,1,1,1,1,1,NaN
253,321,2,2,2,2,1,1,NaN
254,315,1,2,2,1,1,1,NaN
255,237,2,2,2,2,1,0,0.0973686798224662
256,304,1,1,2,1,1,0,0.547575762542692
257,260,2,1,2,2,1,0,0.568948068945247
258,290,1,1,2,1,1,1,NaN
259,322,1,1,2,1,1,0,0.525460112286964
260,226,2,1,2,2,1,1,NaN
261,236,1,2,2,1,1,1,NaN
262,293,1,2,1,1,1,1,NaN
263,265,2,1,1,2,2,1,0.4837099413744
264,325,2,2,1,2,1,1,NaN
265,223,1,2,1,1,1,0,0.385707663346693
266,296,1,1,2,1,1,1,NaN
267,261,1,2,1,1,1,1,NaN
268,280,1,1,1,1,2,1,0.413146123843035
269,294,2,2,2,2,2,1,0.407295363875164
270,246,2,2,2,2,1,1,NaN
271,245,2,1,2,2,2,1,0.381035425309165
272,329,1,2,2,1,1,1,NaN
273,320,1,2,2,1,1,1,NaN
274,288,1,2,2,1,1,1,NaN
275,267,2,2,1,2,1,1,NaN
276,252,2,1,2,2,1,0,0.0856475519976811
277,230,1,1,1,1,1,1,NaN
278,269,2,1,2,2,1,1,NaN
279,277,2,1,1,2,1,1,NaN
280,224,2,2,2,2,1,0,0.532751613114669
281,256,2,1,1,2,1,0,0.7993038906734
282,299,2,2,2,2,1,1,NaN
283,307,2,2,1,2,1,1,NaN
284,302,1,2,1,1,1,1,NaN
285,250,2,2,2,2,1,1,NaN
286,273,2,1,2,2,1,1,NaN
287,228,1,2,2,1,2,1,0.256937388205188
288,298,1,2,1,1,1,1,NaN
289,235,2,1,2,2,1,1,NaN
290,281,1,1,1,1,1,1,NaN
291,286,1,1,1,1,1,1,NaN
292,263,1,1,1,1,1,1,NaN
293,254,2,2,1,2,1,1,NaN
294,297,2,1,1,2,1,0,0.231203936093152
295,222,2,1,1,2,1,1,NaN
296,285,2,2,1,2,1,0,0.728288213727865
297,234,1,1,2,1,1,1,NaN
298,319,2,1,1,2,2,1,0.0138864826130884
299,303,2,2,2,2,1,1,NaN
300,257,1,2,2,1,1,1,NaN
301,241,2,2,1,2,1,1,NaN
302,300,1,1,1,1,1,0,0.891149291541296
303,271,2,2,1,2,1,1,NaN
304,251,1,1,1,1,1,1,NaN
305,233,2,2,1,2,1,0,0.681057491501633
306,225,1,1,1,1,1,1,NaN
307,247,1,1,1,1,1,0,0.212013958474927
308,284,1,2,2,1,1,1,NaN
309,289,2,2,2,2,1,1,NaN
310,316,2,2,1,2,1,0,0.241173816035371
311,229,2,2,1,2,1,1,NaN
312,291,2,2,2,2,2,1,0.255040690759415
313,243,2,1,1,2,1,0,0.472773129115012
314,324,1,2,1,1,1,1,NaN
315,238,1,1,2,1,1,0,0.646504586489755
316,258,2,2,2,2,1,0,0.720548658000553
317,255,1,1,2,1,1,0,0.922044886261574
318,279,2,2,1,2,1,1,NaN
319,313,1,1,2,1,1,0,0.0404308818979189
320,253,1,2,1,1,1,1,NaN
321,239,2,1,2,2,1,0,0.580284648018278
322,262,2,2,2,2,1,1,NaN
323,301,2,1,2,2,1,1,NaN
324,283,2,1,1,2,1,1,NaN
325,268,1,1,2,1,1,0,0.154778530355543
326,272,1,1,1,1,1,0,0.684755188189229
327,306,1,2,2,1,1,0,0.176745511842455
328,323,2,1,1,2,1,1,NaN
329,287,2,1,1,2,1,1,NaN
330,232,1,2,1,1,1,1,NaN
331,358,2,2,1,2,1,1,NaN
332,410,2,2,2,2,1,0,0.0505014351801947
333,398,2,2,2,2,1,1,NaN
334,391,1,1,2,1,1,1,NaN
335,406,2,2,2,2,1,1,NaN
336,374,1,1,2,1,1,1,NaN
337,379,1,2,2,1,2,1,0.358151555519726
338,395,1,1,2,1,1,1,NaN
339,381,1,2,2,1,1,1,NaN
340,435,1,2,1,1,1,0,0.420014152798103
341,378,1,1,2,1,1,1,NaN
342,354,2,2,1,2,1,0,0.528172439386253
343,340,1,2,1,1,1,0,0.181269666420121
344,421,2,1,1,2,1,1,NaN
345,429,2,1,1,2,1,1,NaN
346,365,1,2,2,1,2,1,0.544072974123992
347,388,2,1,1,2,1,1,NaN
348,347,1,1,2,1,1,0,0.175435295137504
349,385,1,2,1,1,1,1,NaN
350,426,1,2,2,1,1,1,NaN
351,409,1,2,2,1,1,0,0.468525533568027
352,353,1,2,2,1,1,0,0.0543823339357914
353,438,2,1,1,2,1,1,NaN
354,335,2,2,2,2,1,1,NaN
355,345,1,2,1,1,1,0,1.02467228486421
356,366,2,1,1,2,1,1,NaN
357,402,2,2,2,2,1,1,NaN
358,339,2,1,2,2,2,1,0.431753132579615
359,416,1,1,1,1,1,1,NaN
360,369,1,1,1,1,1,1,NaN
361,355,1,1,2,1,1,0,0.46054483007174
362,383,1,1,1,1,1,1,NaN
363,387,1,1,2,1,1,0,0.149585951619883
364,380,2,1,2,2,1,1,NaN
365,430,1,2,2,1,1,1,NaN
366,364,1,1,2,1,2,1,0.39692659508728
367,368,2,2,1,2,1,0,0.700027099857834
368,367,1,2,1,1,1,1,NaN
369,396,2,1,2,2,1,1,NaN
370,407,1,1,1,1,1,1,NaN
371,394,2,2,1,2,1,1,NaN
372,412,2,1,2,2,1,1,NaN
373,405,1,2,1,1,1,1,NaN
374,331,2,2,1,2,2,1,0.429842680345246
375,439,1,2,2,1,1,1,NaN
376,370,2,1,1,2,1,1,NaN
377,384,2,1,1,2,1,1,NaN
378,349,1,2,1,1,1,1,NaN
379,341,2,2,1,2,1,0,0.690539222801817
380,392,2,1,1,2,1,1,NaN
381,427,2,2,2,2,1,0,0.7326786249414
382,350,2,2,1,2,1,1,NaN
383,352,2,1,2,2,1,0,0.178402524794365
384,348,2,1,1,2,1,0,0.382117078414012
385,336,1,1,1,1,1,0,0.517383710584909
386,359,1,1,1,1,1,1,NaN
387,344,2,1,1,2,1,0,0.464897488784118
388,417,2,1,2,2,1,1,NaN
389,373,2,2,2,2,1,1,NaN
390,404,2,1,2,2,1,1,NaN
391,422,1,2,2,1,1,0,0.738873547259573
392,386,2,2,1,2,1,0,0.442692871391046
393,408,2,1,1,2,1,0,0.21504791348525
394,400,2,1,2,2,1,0,0.727096522321517
395,390,2,2,1,2,1,0,0.373637983349909
396,360,2,1,2,2,1,0,0.734549276088728
397,346,2,2,1,2,1,0,0.65380954945249
398,440,2,2,2,2,1,0,0.851360202190335
399,338,2,1,1,2,1,1,NaN
400,363,1,1,2,1,1,1,NaN
401,371,2,2,1,2,2,1,0.432458138620859
402,432,1,1,2,1,1,1,NaN
403,343,1,1,1,1,2,1,0.377500444836187
404,419,2,2,1,2,1,1,NaN
405,342,1,1,1,1,1,0,0.561149104241849
406,411,1,1,1,1,1,1,NaN
407,414,2,2,2,2,1,1,NaN
408,418,1,2,1,1,1,0,0.0914514871546999
409,357,1,2,2,1,1,1,NaN
410,351,1,1,1,1,1,1,NaN
411,437,1,1,1,1,1,1,NaN
412,397,1,2,1,1,1,1,NaN
413,401,1,2,1,1,1,1,NaN
414,403,1,1,1,1,1,1,NaN
415,425,2,1,1,2,1,1,NaN
416,377,2,2,1,2,1,1,NaN
417,436,2,2,1,2,1,1,NaN
418,433,2,1,2,2,1,1,NaN
419,428,1,1,2,1,1,1,NaN
420,389,1,2,2,1,1,1,NaN
421,361,1,2,1,1,1,1,NaN
422,413,1,2,2,1,1,1,NaN
423,382,2,2,1,2,1,1,NaN
424,420,1,1,2,1,1,0,0.952961552149645
425,372,1,2,1,1,1,1,NaN
426,334,1,2,1,1,1,0,0.419735252526152
427,393,1,2,1,1,1,0,0.976261284778957
428,415,2,1,1,2,2,1,0.53053270244709
429,356,2,1,2,2,1,1,NaN
430,337,2,2,2,2,2,1,0.351991459154306
431,424,1,1,1,1,1,1,NaN
432,333,2,1,1,2,1,0,0.139341853888254
433,362,2,2,1,2,1,0,0.124092476657097
434,332,1,1,2,1,1,0,0.435766604077799
435,375,2,1,1,2,1,1,NaN
436,423,2,2,2,2,1,0,0.208242805369082
437,431,2,2,2,2,1,0,0.138278052743772
438,399,1,1,2,1,1,0,0.283594167034607
439,376,1,2,2,1,1,0,0.269503118532157
440,434,1,2,2,1,2,1,0.353168810463103
