PresOrder,TrialNumber,Far_Close,Hallway,Perspective,Phase,Catch_Trial,Response,Response_Time
1,1,1,1,1,1,1,1,NaN
2,94,1,2,2,1,1,1,NaN
3,40,2,2,1,2,1,1,NaN
4,87,2,2,2,2,1,1,NaN
5,79,1,1,1,1,1,1,NaN
6,8,2,2,2,2,1,1,NaN
7,31,1,2,1,1,1,1,NaN
8,41,1,1,2,1,1,1,NaN
9,29,1,1,2,1,1,1,NaN
10,83,2,2,2,2,1,1,NaN
11,22,2,1,2,2,1,1,NaN
12,27,1,2,2,1,1,1,NaN
13,50,2,1,1,2,1,1,NaN
14,65,2,1,1,2,1,1,NaN
15,11,1,2,1,1,1,1,NaN
16,20,2,2,1,2,1,1,NaN
17,93,2,1,2,2,1,1,NaN
18,42,2,1,2,2,1,1,NaN
19,5,1,1,2,1,1,1,NaN
20,56,1,2,2,1,1,1,NaN
21,24,2,2,2,2,1,1,NaN
22,36,2,2,1,2,1,1,NaN
23,28,2,2,2,2,1,1,NaN
24,6,2,1,2,2,1,1,NaN
25,96,1,1,1,1,1,1,NaN
26,14,2,1,1,2,1,1,NaN
27,102,1,2,2,1,1,1,NaN
28,38,2,1,1,2,1,1,NaN
29,88,1,1,2,1,1,1,NaN
30,58,1,1,2,1,2,1,0.430701479446725
31,60,2,1,2,2,1,1,NaN
32,54,1,1,1,1,1,1,NaN
33,86,1,2,2,1,1,1,NaN
34,4,2,2,1,2,1,1,NaN
35,12,2,2,1,2,1,1,NaN
36,70,2,1,2,2,1,1,NaN
37,25,1,1,2,1,1,1,NaN
38,109,2,2,1,2,2,1,0.387308711302467
39,69,1,1,1,1,1,1,NaN
40,97,2,1,1,2,1,1,NaN
41,23,1,2,2,1,1,1,NaN
42,15,1,2,2,1,1,1,NaN
43,76,1,1,1,1,2,1,0.376597919648702
44,52,2,2,1,2,1,1,NaN
45,107,1,2,2,1,1,1,NaN
46,19,1,2,2,1,1,1,NaN
47,9,1,1,2,1,1,1,NaN
48,33,1,1,2,1,1,1,NaN
49,98,1,2,2,1,1,1,NaN
50,85,2,1,1,2,1,1,NaN
51,66,1,2,1,1,1,1,NaN
52,105,1,1,2,1,1,1,NaN
53,100,1,1,2,1,1,1,NaN
54,92,1,1,2,1,1,1,NaN
55,32,2,2,2,2,1,1,NaN
56,26,2,1,2,2,1,1,NaN
57,103,2,2,1,2,1,1,NaN
58,73,1,1,2,1,1,1,NaN
59,10,2,1,2,2,1,1,NaN
60,101,2,1,1,2,1,1,NaN
61,47,1,2,2,1,1,1,NaN
62,61,1,2,1,1,2,1,0.413486191626362
63,44,2,2,2,2,1,1,NaN
64,16,2,2,1,2,1,1,NaN
65,62,1,2,1,1,1,1,NaN
66,91,2,2,2,2,1,1,NaN
67,78,2,2,2,2,1,1,NaN
68,64,1,1,2,1,1,1,NaN
69,84,1,1,1,1,1,1,NaN
70,51,1,2,1,1,1,1,NaN
71,104,2,1,2,2,2,1,0.40830741163154
72,39,1,2,1,1,1,1,NaN
73,72,2,2,2,2,1,1,NaN
74,110,2,2,2,2,1,1,NaN
75,77,1,2,2,1,1,1,NaN
76,80,2,1,1,2,1,1,NaN
77,21,1,1,2,1,1,1,NaN
78,68,2,2,1,2,2,1,0.388890791129597
79,81,1,2,2,1,1,1,NaN
80,89,2,1,1,2,1,1,NaN
81,55,2,1,2,2,1,1,NaN
82,75,1,1,2,1,2,1,0.44699871613193
83,53,2,1,1,2,2,1,0.426961672170364
84,34,2,1,2,2,1,1,NaN
85,2,2,1,2,2,1,1,NaN
86,71,1,2,2,1,1,1,NaN
87,43,1,2,2,1,1,1,NaN
88,82,2,1,2,2,2,1,0.371529762329374
89,59,1,1,2,1,1,1,NaN
90,30,2,1,1,2,1,1,NaN
91,106,2,1,2,2,1,1,NaN
92,90,1,2,1,1,1,1,NaN
93,17,1,1,1,1,1,1,NaN
94,95,2,2,1,2,1,1,NaN
95,18,2,1,2,2,1,1,NaN
96,37,1,1,1,1,1,1,NaN
97,7,1,2,1,1,1,1,NaN
98,63,2,2,1,2,1,1,NaN
99,67,2,2,1,2,1,1,NaN
100,35,1,2,2,1,1,1,NaN
101,48,2,2,2,2,1,1,NaN
102,57,2,2,1,2,1,1,NaN
103,108,1,2,2,1,2,1,0.422343029205877
104,74,2,1,2,2,1,1,NaN
105,45,1,1,1,1,1,1,NaN
106,99,2,2,2,2,1,1,NaN
107,49,1,1,2,1,1,1,NaN
108,3,1,2,1,1,1,1,NaN
109,13,1,1,2,1,1,1,NaN
110,46,2,1,2,2,1,1,NaN
111,210,1,2,2,1,1,1,NaN
112,183,2,2,2,2,2,1,0.415707424685024
113,217,1,1,2,1,1,1,NaN
114,133,1,2,2,1,1,1,NaN
115,182,1,2,1,1,1,1,NaN
116,203,2,2,1,2,1,1,NaN
117,155,1,2,1,1,1,1,NaN
118,196,2,1,2,2,1,1,NaN
119,177,2,1,2,2,1,1,NaN
120,111,1,1,1,1,1,1,NaN
121,154,2,1,1,2,1,1,NaN
122,192,2,2,2,2,2,1,0.401495922909817
123,184,2,2,1,2,1,1,NaN
124,127,1,1,1,1,1,1,NaN
125,151,1,2,1,1,1,1,NaN
126,216,2,2,2,2,1,1,NaN
127,175,1,1,2,1,1,1,NaN
128,215,1,2,1,1,1,1,NaN
129,187,2,1,2,2,1,1,NaN
130,113,1,2,2,1,1,1,NaN
131,172,2,1,2,2,1,1,NaN
132,163,2,1,1,2,1,1,NaN
133,136,1,2,2,1,2,1,0.434887289249673
134,117,1,2,1,1,1,1,NaN
135,138,2,1,2,2,1,1,NaN
136,168,1,2,1,1,1,1,NaN
137,176,2,1,2,2,2,1,0.415212549176431
138,193,1,2,2,1,1,1,NaN
139,162,1,1,2,1,1,1,NaN
140,150,2,1,1,2,1,1,NaN
141,114,2,2,1,2,1,1,NaN
142,158,2,1,2,2,1,1,NaN
143,143,1,2,1,1,1,1,NaN
144,213,1,1,1,1,1,1,NaN
145,212,2,2,2,2,1,1,NaN
146,218,2,1,2,2,1,1,NaN
147,174,2,2,2,2,1,1,NaN
148,194,2,2,1,2,1,1,NaN
149,220,2,2,1,2,1,1,NaN
150,209,2,1,1,2,1,1,NaN
151,148,2,2,1,2,1,1,NaN
152,146,2,1,2,2,1,1,NaN
153,191,2,1,2,2,1,1,NaN
154,164,1,2,2,1,1,1,NaN
155,189,2,2,2,2,1,1,NaN
156,204,1,1,1,1,1,1,NaN
157,169,1,2,2,1,2,1,0.404535119920183
158,141,1,1,2,1,1,1,NaN
159,201,2,1,1,2,1,1,NaN
160,116,2,1,2,2,1,1,NaN
161,205,2,1,2,2,1,1,NaN
162,160,1,2,1,1,1,1,NaN
163,156,2,2,2,2,1,1,NaN
164,140,2,2,1,2,1,1,NaN
165,131,1,1,2,1,1,1,NaN
166,159,2,1,2,2,2,1,0.417250289068761
167,165,2,2,2,2,1,1,NaN
168,121,1,2,2,1,1,1,NaN
169,130,2,2,2,2,1,1,NaN
170,147,1,2,2,1,1,1,NaN
171,179,2,2,1,2,1,1,NaN
172,153,1,1,2,1,1,1,NaN
173,129,1,2,2,1,1,1,NaN
174,181,2,1,2,2,1,1,NaN
175,125,1,2,2,1,1,1,NaN
176,198,2,2,2,2,1,1,NaN
177,126,2,2,2,2,1,1,NaN
178,166,1,1,1,1,1,1,NaN
179,123,1,1,2,1,1,1,NaN
180,195,1,1,1,1,1,1,NaN
181,142,2,1,1,2,1,1,NaN
182,207,2,2,2,2,1,1,NaN
183,119,1,1,2,1,1,1,NaN
184,178,1,2,1,1,1,1,NaN
185,200,1,1,1,1,1,1,NaN
186,120,2,1,2,2,1,1,NaN
187,190,1,1,1,1,1,1,NaN
188,132,2,1,1,2,1,1,NaN
189,149,1,1,1,1,1,1,NaN
190,128,2,1,2,2,1,1,NaN
191,211,1,1,1,1,2,1,0.392627964534768
192,144,2,2,1,2,1,1,NaN
193,185,1,2,1,1,2,1,0.506798465681641
194,112,2,1,2,2,1,1,NaN
195,167,2,1,1,2,1,1,NaN
196,124,2,1,2,2,1,1,NaN
197,139,1,2,1,1,1,1,NaN
198,170,2,2,1,2,1,1,NaN
199,122,2,2,1,2,1,1,NaN
200,180,1,1,1,1,1,1,NaN
201,206,1,2,2,1,1,1,NaN
202,219,1,2,2,1,1,1,NaN
203,173,1,2,1,1,1,1,NaN
204,135,2,2,2,2,2,1,0.424061777786847
205,188,1,2,2,1,1,1,NaN
206,145,1,1,1,1,1,1,NaN
207,197,1,2,2,1,1,1,NaN
208,118,2,2,1,2,1,1,NaN
209,199,1,1,1,1,2,1,0.537821102065209
210,134,2,2,1,2,1,1,NaN
211,186,1,1,2,1,1,1,NaN
212,152,2,2,1,2,1,1,NaN
213,208,1,1,2,1,1,1,NaN
214,161,2,2,1,2,1,1,NaN
215,214,2,1,2,2,1,1,NaN
216,115,1,1,2,1,1,1,NaN
217,157,1,1,2,1,1,1,NaN
218,202,1,2,1,1,1,1,NaN
219,171,1,1,1,1,1,1,NaN
220,137,1,1,2,1,1,1,NaN
221,318,2,2,1,2,1,1,NaN
222,223,2,1,1,2,1,1,NaN
223,232,2,1,1,2,2,1,0.483016931999373
224,267,1,2,1,1,1,1,NaN
225,319,1,1,1,1,1,1,NaN
226,315,1,1,2,1,1,1,NaN
227,279,1,1,2,1,1,1,NaN
228,264,2,2,1,2,1,1,NaN
229,280,2,1,1,2,1,1,NaN
230,329,1,2,1,1,1,1,NaN
231,283,1,1,1,1,1,1,NaN
232,225,2,2,2,2,1,1,NaN
233,256,2,2,1,2,1,1,NaN
234,275,2,1,1,2,1,1,NaN
235,284,2,1,2,2,1,1,NaN
236,290,1,2,2,1,2,1,0.419451036443206
237,251,2,2,2,2,1,1,NaN
238,227,2,1,1,2,1,1,NaN
239,273,2,2,1,2,1,1,NaN
240,259,1,2,2,1,1,1,NaN
241,324,2,1,2,2,1,1,NaN
242,243,2,2,2,2,1,1,NaN
243,317,1,2,1,1,1,1,NaN
244,237,1,2,2,1,1,1,NaN
245,281,1,2,1,1,1,1,NaN
246,327,1,1,2,1,1,1,NaN
247,254,2,1,2,2,1,1,NaN
248,297,1,1,1,1,1,1,NaN
249,235,1,1,2,1,1,1,NaN
250,247,2,2,2,2,1,1,NaN
251,302,2,1,1,2,1,1,NaN
252,322,2,2,2,2,1,1,NaN
253,314,2,2,2,2,1,1,NaN
254,222,2,1,2,2,2,1,0.410670581188242
255,294,2,1,2,2,1,1,NaN
256,258,2,1,2,2,1,1,NaN
257,252,1,1,2,1,1,1,NaN
258,239,1,1,1,1,1,1,NaN
259,288,2,1,2,2,1,1,NaN
260,300,2,2,2,2,1,1,NaN
261,301,1,1,2,1,1,1,NaN
262,299,1,2,2,1,1,1,NaN
263,221,1,1,2,1,1,1,NaN
264,276,1,2,1,1,1,1,NaN
265,246,1,2,1,1,1,1,NaN
266,248,1,1,2,1,1,1,NaN
267,253,2,2,2,2,2,1,0.401133619021493
268,230,1,1,1,1,1,1,NaN
269,323,1,1,1,1,1,1,NaN
270,304,1,2,2,1,1,1,NaN
271,285,1,2,1,1,1,1,NaN
272,233,1,2,2,1,1,1,NaN
273,266,2,1,2,2,1,1,NaN
274,236,2,1,1,2,1,1,NaN
275,274,1,1,2,1,1,1,NaN
276,330,2,2,1,2,1,1,NaN
277,241,1,2,1,1,1,1,NaN
278,303,2,1,2,2,2,1,0.428100675999303
279,262,2,1,1,2,1,1,NaN
280,316,2,1,2,2,1,1,NaN
281,261,1,1,2,1,1,1,NaN
282,291,2,2,1,2,1,1,NaN
283,260,2,2,2,2,1,1,NaN
284,228,1,2,1,1,1,1,NaN
285,250,1,2,2,1,1,1,NaN
286,296,2,2,2,2,1,1,NaN
287,325,1,2,1,1,1,1,NaN
288,234,2,2,2,2,1,1,NaN
289,312,2,1,1,2,1,1,NaN
290,270,1,1,1,1,1,1,NaN
291,245,2,1,2,2,1,1,NaN
292,310,2,2,2,2,1,1,NaN
293,257,1,1,2,1,1,1,NaN
294,244,1,1,1,1,1,1,NaN
295,282,2,2,1,2,1,1,NaN
296,326,2,2,2,2,1,1,NaN
297,311,1,1,1,1,1,1,NaN
298,293,1,1,1,1,2,1,0.410406901217357
299,229,2,2,2,2,1,1,NaN
300,277,2,2,1,2,1,1,NaN
301,265,1,1,1,1,1,1,NaN
302,269,2,2,2,2,1,1,NaN
303,271,2,1,1,2,1,1,NaN
304,242,2,2,1,2,2,1,0.487898962282998
305,298,2,1,1,2,1,1,NaN
306,287,1,1,2,1,1,1,NaN
307,278,1,1,1,1,2,1,0.419637456136115
308,306,2,2,1,2,1,1,NaN
309,320,2,1,1,2,1,1,NaN
310,224,1,2,2,1,1,1,NaN
311,231,2,1,2,2,1,1,NaN
312,305,1,2,2,1,2,1,0.469060915926093
313,292,1,1,1,1,1,1,NaN
314,308,2,1,1,2,1,1,NaN
315,272,1,2,1,1,1,1,NaN
316,240,2,1,2,2,1,1,NaN
317,226,1,1,2,1,1,1,NaN
318,328,2,1,1,2,1,1,NaN
319,263,1,2,2,1,1,1,NaN
320,313,1,2,1,1,1,1,NaN
321,321,1,2,2,1,1,1,NaN
322,249,2,1,2,2,1,1,NaN
323,309,1,2,2,1,1,1,NaN
324,289,1,2,2,1,1,1,NaN
325,255,1,2,2,1,1,1,NaN
326,286,2,2,2,2,1,1,NaN
327,268,1,1,1,1,2,1,0.45748796978296
328,238,2,2,2,2,1,1,NaN
329,295,1,2,1,1,1,1,NaN
330,307,1,1,1,1,1,1,NaN
331,349,1,2,1,1,1,1,NaN
332,413,2,1,1,2,1,1,NaN
333,435,2,2,2,2,1,1,NaN
334,397,2,2,1,2,1,1,NaN
335,437,2,1,2,2,1,1,NaN
336,436,1,1,2,1,1,1,NaN
337,420,1,1,1,1,1,1,NaN
338,382,2,1,1,2,1,1,NaN
339,423,2,2,1,2,1,1,NaN
340,376,2,2,2,2,1,1,NaN
341,399,2,1,2,2,1,1,NaN
342,387,1,2,2,1,1,1,NaN
343,401,2,2,1,2,1,1,NaN
344,429,2,1,1,2,1,1,NaN
345,353,1,2,2,1,1,1,NaN
346,366,2,2,2,2,1,1,NaN
347,342,1,1,2,1,1,1,NaN
348,385,1,1,1,1,1,1,NaN
349,373,2,1,1,2,2,1,0.40805192593325
350,414,1,2,2,1,1,1,NaN
351,369,1,2,1,1,1,1,NaN
352,396,1,2,2,1,1,1,NaN
353,335,1,2,2,1,1,1,NaN
354,398,1,1,1,1,1,1,NaN
355,393,2,2,1,2,1,1,NaN
356,356,2,1,1,2,1,1,NaN
357,384,2,2,2,2,1,1,NaN
358,357,1,2,2,1,1,1,NaN
359,410,1,2,2,1,1,1,NaN
360,332,1,2,2,1,2,1,0.536753798118298
361,336,2,2,1,2,1,1,NaN
362,379,1,2,1,1,1,1,NaN
363,417,2,1,1,2,1,1,NaN
364,425,2,1,1,2,1,1,NaN
365,411,2,2,1,2,1,1,NaN
366,331,1,1,2,1,1,1,NaN
367,400,1,2,1,1,1,1,NaN
368,364,2,1,1,2,1,1,NaN
369,372,2,1,2,2,1,1,NaN
370,370,2,2,2,2,1,1,NaN
371,380,2,2,2,2,1,1,NaN
372,388,2,2,2,2,1,1,NaN
373,409,2,1,2,2,1,1,NaN
374,337,1,2,2,1,2,1,0.399005742136069
375,341,2,2,1,2,1,1,NaN
376,367,1,1,2,1,1,1,NaN
377,340,1,2,1,1,1,1,NaN
378,416,1,1,1,1,1,1,NaN
379,347,1,1,2,1,1,1,NaN
380,360,2,1,2,2,1,1,NaN
381,439,2,2,1,2,2,1,0.416842331374937
382,350,2,2,1,2,1,1,NaN
383,371,1,1,2,1,1,1,NaN
384,431,2,2,1,2,1,1,NaN
385,415,2,2,1,2,1,1,NaN
386,424,1,1,2,1,1,1,NaN
387,433,2,1,2,2,1,1,NaN
388,402,1,1,1,1,1,1,NaN
389,368,2,1,1,2,1,1,NaN
390,405,1,2,1,1,1,1,NaN
391,362,2,2,1,2,1,1,NaN
392,346,2,2,1,2,1,1,NaN
393,358,2,2,1,2,1,1,NaN
394,344,2,1,1,2,1,1,NaN
395,338,1,1,1,1,1,1,NaN
396,438,1,2,1,1,1,1,NaN
397,361,1,2,2,1,1,1,NaN
398,419,2,2,2,2,1,1,NaN
399,391,2,1,1,2,1,1,NaN
400,404,1,2,2,1,2,1,0.428302313624954
401,386,2,1,2,2,1,1,NaN
402,374,1,2,1,1,1,1,NaN
403,363,1,1,2,1,1,1,NaN
404,345,1,2,2,1,1,1,NaN
405,440,2,2,1,2,1,1,NaN
406,434,1,2,2,1,1,1,NaN
407,421,2,1,1,2,1,1,NaN
408,422,1,2,2,1,1,1,NaN
409,381,1,1,2,1,1,1,NaN
410,428,1,1,1,1,1,1,NaN
411,427,2,2,2,2,1,1,NaN
412,334,2,1,1,2,1,1,NaN
413,343,2,1,1,2,2,1,0.443332949958858
414,418,1,2,1,1,1,1,NaN
415,348,2,1,1,2,1,1,NaN
416,389,1,1,2,1,1,1,NaN
417,430,1,2,2,1,1,1,NaN
418,375,2,2,2,2,2,1,0.447242203077622
419,392,1,2,2,1,1,1,NaN
420,390,2,2,1,2,2,1,0.484441272092226
421,339,2,1,2,2,1,1,NaN
422,432,1,1,2,1,1,1,NaN
423,395,2,1,1,2,1,1,NaN
424,412,1,1,2,1,1,1,NaN
425,351,1,1,2,1,1,1,NaN
426,359,1,1,1,1,1,1,NaN
427,378,2,1,2,2,1,1,NaN
428,406,2,2,1,2,1,1,NaN
429,407,1,1,1,1,1,1,NaN
430,377,1,1,2,1,1,1,NaN
431,355,1,1,1,1,1,1,NaN
432,403,2,1,1,2,1,1,NaN
433,333,1,1,1,1,2,1,0.483926203554802
434,394,1,1,1,1,1,1,NaN
435,408,1,1,2,1,2,1,0.631038556684871
436,383,1,2,1,1,1,1,NaN
437,426,1,2,2,1,1,1,NaN
438,354,2,2,2,2,1,1,NaN
439,365,1,2,2,1,1,1,NaN
440,352,2,1,2,2,1,1,NaN
