PresOrder,TrialNumber,Far_Close,Hallway,Perspective,Phase,Catch_Trial,Response,Response_Time
1,41,2,1,1,2,1,1,NaN
2,69,1,1,1,1,1,1,NaN
3,104,1,2,1,1,1,1,NaN
4,31,1,1,1,1,1,1,NaN
5,29,1,2,1,1,1,1,NaN
6,50,1,2,2,1,1,1,NaN
7,106,1,1,2,1,1,1,NaN
8,103,2,1,2,2,1,1,NaN
9,46,1,2,2,1,1,1,NaN
10,100,2,2,2,2,1,1,NaN
11,109,2,2,2,2,1,1,NaN
12,28,2,1,2,2,1,1,NaN
13,49,2,1,2,2,1,1,NaN
14,83,2,1,2,2,1,1,NaN
15,54,1,2,1,1,1,1,NaN
16,87,2,1,2,2,1,1,NaN
17,79,1,2,2,1,1,1,NaN
18,4,2,2,2,2,1,1,NaN
19,59,2,2,2,2,1,1,NaN
20,12,2,2,1,2,1,1,NaN
21,64,2,2,2,2,1,1,NaN
22,3,1,2,2,1,1,1,NaN
23,71,1,2,1,1,1,1,NaN
24,74,2,1,1,2,1,1,NaN
25,2,2,1,2,2,1,1,NaN
26,9,1,1,1,1,1,1,NaN
27,85,2,2,1,2,1,1,NaN
28,17,1,2,1,1,1,1,NaN
29,61,2,1,2,2,2,1,0.709528731703358
30,105,2,2,2,2,1,1,NaN
31,110,1,2,2,1,2,1,0.504319588690123
32,25,1,2,2,1,1,1,NaN
33,98,1,2,1,1,1,1,NaN
34,1,1,1,1,1,1,1,NaN
35,27,1,1,1,1,1,1,NaN
36,16,2,1,1,2,1,1,NaN
37,93,1,2,1,1,1,0,0.825738544310298
38,38,1,2,2,1,1,1,NaN
39,11,1,2,2,1,1,1,NaN
40,20,2,1,2,2,1,1,NaN
41,55,2,2,1,2,1,1,NaN
42,45,2,1,2,2,1,1,NaN
43,5,1,1,1,1,1,1,NaN
44,58,1,2,2,1,1,1,NaN
45,56,1,1,1,1,1,1,NaN
46,60,1,1,2,1,1,1,NaN
47,67,1,2,2,1,1,1,NaN
48,80,2,2,2,2,1,1,NaN
49,53,2,1,2,2,1,1,NaN
50,18,2,2,1,2,1,1,NaN
51,13,1,1,1,1,1,1,NaN
52,107,2,1,2,2,1,1,NaN
53,36,1,1,1,1,1,1,NaN
54,33,2,1,1,2,1,1,NaN
55,96,2,1,1,2,1,1,NaN
56,39,2,2,1,2,1,1,NaN
57,42,1,2,2,1,1,1,NaN
58,35,2,2,2,2,1,1,NaN
59,91,1,1,1,1,1,1,NaN
60,84,1,2,1,1,1,1,NaN
61,92,2,1,1,2,1,1,NaN
62,8,2,2,1,2,1,1,NaN
63,24,2,1,1,2,1,1,NaN
64,57,2,1,1,2,1,1,NaN
65,47,2,2,1,2,1,1,NaN
66,23,1,1,2,1,1,1,NaN
67,26,2,2,1,2,1,1,NaN
68,101,1,1,1,1,1,1,NaN
69,68,2,2,2,2,1,1,NaN
70,44,1,1,1,1,1,1,NaN
71,19,1,1,1,1,1,1,NaN
72,14,2,1,2,2,2,1,0.429916136765314
73,77,1,1,2,1,1,1,NaN
74,102,2,2,2,2,2,1,0.665016189677772
75,62,2,1,1,2,1,1,NaN
76,52,1,1,2,1,1,1,NaN
77,94,2,2,2,2,1,1,NaN
78,82,1,1,2,1,1,1,NaN
79,37,2,1,1,2,1,1,NaN
80,63,1,2,2,1,1,1,NaN
81,22,2,2,1,2,1,1,NaN
82,32,2,2,2,2,2,1,0.131138147236015
83,7,1,2,1,1,1,1,NaN
84,34,1,2,1,1,1,1,NaN
85,43,2,2,1,2,1,1,NaN
86,95,1,1,2,1,1,1,NaN
87,70,2,1,2,2,1,1,NaN
88,86,1,1,2,1,1,1,NaN
89,75,1,2,2,1,1,0,0.531341893688477
90,48,1,1,2,1,1,1,NaN
91,108,1,2,1,1,1,1,NaN
92,73,1,1,2,1,1,0,1.37339859150961
93,15,1,1,2,1,2,1,0.491113529092218
94,89,1,2,1,1,1,1,NaN
95,51,2,2,2,2,1,1,NaN
96,21,1,2,2,1,1,1,NaN
97,72,2,2,2,2,1,1,NaN
98,76,2,2,2,2,1,1,NaN
99,78,2,1,1,2,1,1,NaN
100,65,1,1,1,1,1,1,NaN
101,97,1,1,2,1,2,1,0.797785888876206
102,40,1,1,2,1,1,1,NaN
103,6,2,1,1,2,1,1,NaN
104,90,2,2,2,2,1,1,NaN
105,10,2,1,1,2,1,1,NaN
106,88,2,1,1,2,2,1,0.468463198040808
107,81,1,1,2,1,2,1,0.669547953288202
108,30,2,2,1,2,1,1,NaN
109,99,1,2,2,1,2,1,0.652314960057993
110,66,2,1,1,2,1,1,NaN
111,206,1,2,2,1,1,1,NaN
112,163,1,2,2,1,1,1,NaN
113,208,1,1,2,1,1,1,NaN
114,211,2,2,2,2,1,1,NaN
115,125,1,1,1,1,1,1,NaN
116,137,1,2,2,1,1,1,NaN
117,144,2,1,1,2,1,1,NaN
118,150,1,2,2,1,1,1,NaN
119,180,2,1,1,2,1,1,NaN
120,189,1,2,2,1,1,1,NaN
121,116,1,1,1,1,1,1,NaN
122,167,2,1,1,2,1,1,NaN
123,120,2,2,2,2,1,1,NaN
124,111,1,1,1,1,1,1,NaN
125,185,1,2,2,1,1,1,NaN
126,121,1,1,2,1,1,1,NaN
127,154,1,2,2,1,1,1,NaN
128,175,1,1,2,1,1,1,NaN
129,217,1,1,2,1,2,1,0.455224946384988
130,133,1,2,1,1,1,1,NaN
131,214,1,2,2,1,1,1,NaN
132,191,1,1,2,1,1,1,NaN
133,143,1,1,2,1,1,1,NaN
134,123,1,2,1,1,1,1,NaN
135,140,2,1,2,2,1,1,NaN
136,210,1,2,1,1,1,1,NaN
137,161,1,1,1,1,1,1,NaN
138,119,1,2,1,1,1,1,NaN
139,122,2,1,2,2,1,1,NaN
140,173,2,2,1,2,1,1,NaN
141,176,2,1,1,2,1,1,NaN
142,112,2,1,2,2,1,1,NaN
143,200,1,1,1,1,1,1,NaN
144,153,2,1,2,2,1,1,NaN
145,169,2,2,2,2,1,1,NaN
146,177,1,2,1,1,1,1,NaN
147,218,2,1,2,2,1,1,NaN
148,207,2,2,2,2,1,1,NaN
149,182,2,2,1,2,1,1,NaN
150,115,2,2,2,2,1,1,NaN
151,183,1,1,1,1,1,1,NaN
152,128,2,2,2,2,1,1,NaN
153,156,1,1,2,1,1,1,NaN
154,151,2,2,1,2,1,1,NaN
155,118,2,1,1,2,2,1,0.685190658919055
156,147,2,2,1,2,1,1,NaN
157,215,2,2,2,2,1,1,NaN
158,145,2,2,2,2,2,1,0.464229649937806
159,131,2,2,1,2,2,1,0.125839627368805
160,216,1,1,2,1,1,1,NaN
161,195,2,2,1,2,1,0,0.827986135173887
162,113,1,1,2,1,2,1,0.649817734428325
163,174,2,1,2,2,2,1,0.483053516074506
164,155,2,2,1,2,1,1,NaN
165,162,2,1,2,2,1,1,NaN
166,124,2,2,2,2,1,1,NaN
167,136,2,1,1,2,1,1,NaN
168,179,1,1,1,1,1,1,NaN
169,188,2,1,1,2,1,1,NaN
170,184,2,1,2,2,1,1,NaN
171,194,1,2,1,1,1,1,NaN
172,129,1,1,1,1,1,1,NaN
173,186,2,2,1,2,1,1,NaN
174,134,2,2,2,2,1,1,NaN
175,148,1,1,1,1,1,1,NaN
176,193,2,2,2,2,2,1,0.844265072905728
177,212,1,1,2,1,1,1,NaN
178,219,1,2,1,1,1,1,NaN
179,178,2,2,1,2,1,1,NaN
180,209,2,1,1,2,1,1,NaN
181,192,2,1,1,2,1,1,NaN
182,117,2,1,1,2,1,1,NaN
183,203,2,2,1,2,1,1,NaN
184,165,1,2,2,1,2,0,NaN
185,149,2,1,1,2,1,1,NaN
186,171,2,1,1,2,1,1,NaN
187,205,2,1,1,2,1,0,0.252486982702976
188,172,1,2,1,1,1,1,NaN
189,168,1,2,2,1,1,1,NaN
190,141,1,2,1,1,1,0,0.0927968224686992
191,114,1,2,1,1,1,1,NaN
192,213,2,1,2,2,1,1,NaN
193,132,1,2,1,1,2,1,0.575045537127153
194,197,2,1,2,2,1,1,NaN
195,152,1,1,1,1,1,1,NaN
196,201,2,1,2,2,1,1,NaN
197,138,2,2,2,2,1,1,NaN
198,135,1,1,2,1,1,0,0.797568446165315
199,202,1,2,2,1,1,1,NaN
200,181,1,2,1,1,1,1,NaN
201,164,2,2,1,2,1,1,NaN
202,166,1,1,2,1,1,1,NaN
203,126,2,1,2,2,1,1,NaN
204,160,2,2,1,2,1,1,NaN
205,187,1,1,1,1,1,1,NaN
206,139,1,1,2,1,1,1,NaN
207,220,2,2,1,2,1,1,NaN
208,196,1,1,1,1,1,1,NaN
209,204,1,1,1,1,1,1,NaN
210,130,2,1,2,2,1,1,NaN
211,127,1,2,2,1,1,1,NaN
212,158,1,2,2,1,1,1,NaN
213,159,1,2,2,1,2,1,0.880072590161035
214,157,2,1,1,2,1,1,NaN
215,199,2,2,1,2,1,1,NaN
216,170,1,1,1,1,1,1,NaN
217,146,1,2,2,1,1,1,NaN
218,190,2,2,1,2,1,1,NaN
219,142,2,2,1,2,1,1,NaN
220,198,1,2,2,1,1,1,NaN
221,301,1,1,1,1,1,1,NaN
222,320,2,1,1,2,1,0,0.311290749290492
223,269,1,1,2,1,1,1,NaN
224,247,1,1,2,1,1,1,NaN
225,289,2,2,1,2,1,1,NaN
226,305,2,1,2,2,2,0,NaN
227,243,2,1,2,2,1,1,NaN
228,321,1,2,1,1,1,1,NaN
229,323,1,1,1,1,1,1,NaN
230,287,2,1,1,2,1,1,NaN
231,274,1,1,2,1,1,1,NaN
232,224,2,2,1,2,1,1,NaN
233,266,2,1,2,2,1,1,NaN
234,295,1,1,2,1,2,1,0.593913008868185
235,303,1,2,2,1,1,1,NaN
236,316,1,2,1,1,1,1,NaN
237,284,1,2,2,1,1,1,NaN
238,304,2,2,1,2,1,1,NaN
239,329,1,2,1,1,1,1,NaN
240,230,2,1,2,2,1,1,NaN
241,293,1,2,2,1,1,1,NaN
242,286,1,1,2,1,1,1,NaN
243,313,2,2,1,2,1,1,NaN
244,267,1,2,1,1,1,1,NaN
245,314,1,1,2,1,1,1,NaN
246,315,2,1,2,2,1,1,NaN
247,308,1,2,1,1,1,1,NaN
248,288,1,2,2,1,1,1,NaN
249,227,1,2,1,1,1,1,NaN
250,326,2,2,2,2,1,1,NaN
251,233,1,1,1,1,1,1,NaN
252,254,2,2,2,2,1,1,NaN
253,240,1,2,2,1,1,1,NaN
254,265,1,1,2,1,1,1,NaN
255,255,1,1,2,1,1,1,NaN
256,222,2,1,1,2,1,1,NaN
257,277,2,2,2,2,1,1,NaN
258,253,1,2,2,1,1,1,NaN
259,248,2,1,1,2,1,1,NaN
260,262,2,1,2,2,1,1,NaN
261,328,2,1,1,2,1,1,NaN
262,285,2,2,2,2,1,1,NaN
263,244,1,2,2,1,1,1,NaN
264,250,2,2,2,2,1,1,NaN
265,309,2,2,1,2,1,1,NaN
266,225,1,1,2,1,1,1,NaN
267,273,2,2,2,2,1,1,NaN
268,300,2,2,2,2,1,1,NaN
269,317,2,2,1,2,1,1,NaN
270,257,1,2,2,1,1,1,NaN
271,319,1,1,1,1,2,1,0.745808886880695
272,252,2,1,1,2,1,1,NaN
273,280,1,2,1,1,1,1,NaN
274,310,1,1,1,1,1,1,NaN
275,271,2,1,2,2,2,1,0.518363519728155
276,245,2,2,1,2,2,1,0.573627623360153
277,263,1,2,2,1,1,1,NaN
278,307,2,1,2,2,1,1,NaN
279,312,1,2,1,1,1,1,NaN
280,237,1,1,2,1,1,1,NaN
281,299,1,2,1,1,1,1,NaN
282,325,1,2,2,1,1,0,0.984108537566499
283,298,2,1,1,2,1,1,NaN
284,259,2,2,2,2,1,1,NaN
285,256,2,1,1,2,1,1,NaN
286,249,1,2,1,1,1,1,NaN
287,283,2,1,2,2,1,1,NaN
288,311,2,1,2,2,1,1,NaN
289,268,2,2,1,2,1,1,NaN
290,242,1,1,1,1,1,1,NaN
291,324,2,1,1,2,1,1,NaN
292,238,2,1,1,2,1,1,NaN
293,228,2,2,1,2,1,1,NaN
294,226,2,1,1,2,1,1,NaN
295,294,1,2,1,1,2,1,0.811262069093573
296,296,2,2,2,2,1,1,NaN
297,235,1,2,1,1,1,1,NaN
298,270,2,1,1,2,1,1,NaN
299,223,1,2,1,1,1,1,NaN
300,291,2,1,1,2,1,1,NaN
301,279,2,1,2,2,1,1,NaN
302,264,2,2,2,2,1,1,NaN
303,241,2,2,2,2,1,1,NaN
304,236,2,2,2,2,1,1,NaN
305,306,1,1,1,1,1,1,NaN
306,282,1,1,1,1,1,1,NaN
307,231,1,2,2,1,1,1,NaN
308,272,1,2,1,1,1,1,NaN
309,251,1,1,2,1,1,1,NaN
310,318,1,1,2,1,1,1,NaN
311,302,2,1,2,2,1,1,NaN
312,275,2,1,2,2,1,1,NaN
313,258,2,1,2,2,2,1,0.674071522555096
314,261,1,1,2,1,1,1,NaN
315,327,1,1,1,1,1,0,1.13800207902204
316,234,2,1,2,2,1,1,NaN
317,232,2,2,1,2,1,1,NaN
318,260,1,1,2,1,2,1,0.557379707064683
319,281,2,2,2,2,1,0,0.831056964721938
320,292,1,2,1,1,2,1,0.538542378793863
321,330,2,2,2,2,1,1,NaN
322,246,2,2,1,2,1,1,NaN
323,221,1,1,2,1,1,1,NaN
324,297,1,1,1,1,1,1,NaN
325,276,1,2,1,1,1,1,NaN
326,239,2,2,1,2,2,0,NaN
327,229,1,1,2,1,1,0,0.0220784830635239
328,290,1,1,1,1,1,1,NaN
329,322,2,2,1,2,1,1,NaN
330,278,1,1,2,1,1,1,NaN
331,359,2,1,2,2,1,1,NaN
332,352,2,2,2,2,1,1,NaN
333,438,2,1,2,2,1,1,NaN
334,423,2,1,1,2,1,0,1.23258409735899
335,413,2,2,1,2,1,1,NaN
336,385,2,1,1,2,1,1,NaN
337,391,2,2,1,2,1,1,NaN
338,384,1,1,2,1,1,1,NaN
339,348,1,1,1,1,2,0,NaN
340,361,2,2,2,2,1,1,NaN
341,421,2,2,1,2,1,1,NaN
342,426,1,1,1,1,1,1,NaN
343,404,2,2,2,2,1,0,1.16389063831411
344,349,1,1,2,1,1,1,NaN
345,343,2,2,1,2,1,1,NaN
346,382,1,2,1,1,1,1,NaN
347,371,2,2,1,2,1,1,NaN
348,396,1,1,2,1,1,1,NaN
349,412,1,2,1,1,1,0,0.750267486726443
350,437,1,1,2,1,1,1,NaN
351,386,1,2,1,1,1,1,NaN
352,336,2,1,1,2,1,1,NaN
353,415,2,1,2,2,1,1,NaN
354,414,1,1,1,1,1,1,NaN
355,420,1,2,1,1,1,1,NaN
356,440,2,2,1,2,1,1,NaN
357,407,2,1,2,2,1,1,NaN
358,374,1,2,1,1,1,1,NaN
359,411,2,1,1,2,1,1,NaN
360,379,2,2,1,2,1,1,NaN
361,332,2,1,2,2,1,1,NaN
362,424,1,2,1,1,1,1,NaN
363,345,2,1,1,2,1,1,NaN
364,402,2,1,1,2,1,1,NaN
365,344,1,1,2,1,1,1,NaN
366,429,2,2,2,2,1,1,NaN
367,347,2,2,1,2,1,1,NaN
368,392,1,1,2,1,1,1,NaN
369,353,1,1,1,1,1,1,NaN
370,435,2,2,1,2,1,1,NaN
371,400,2,2,2,2,1,1,NaN
372,331,1,1,1,1,1,1,NaN
373,432,1,2,2,1,1,1,NaN
374,418,1,1,2,1,1,1,NaN
375,408,1,2,2,1,1,1,NaN
376,369,2,2,2,2,2,0,NaN
377,397,2,1,2,2,1,1,NaN
378,342,1,2,1,1,1,1,NaN
379,419,2,1,1,2,1,1,NaN
380,378,1,2,2,1,1,1,NaN
381,372,1,1,1,1,1,1,NaN
382,346,1,2,2,1,1,1,NaN
383,360,1,2,2,1,1,1,NaN
384,436,1,2,2,1,2,1,0.729145107743534
385,428,1,2,1,1,1,1,NaN
386,405,2,1,1,2,2,1,0.706198024461628
387,380,1,1,1,1,1,1,NaN
388,365,1,1,1,1,2,1,0.816110192825363
389,403,1,2,2,1,1,1,NaN
390,417,2,2,2,2,1,1,NaN
391,383,2,2,1,2,1,1,NaN
392,377,2,1,2,2,1,1,NaN
393,431,2,1,1,2,1,1,NaN
394,422,1,1,2,1,1,1,NaN
395,434,1,2,2,1,2,1,0.856729251927391
396,338,2,2,1,2,2,1,0.668026732284488
397,430,1,1,2,1,1,1,NaN
398,368,2,1,1,2,1,1,NaN
399,387,2,2,1,2,1,1,NaN
400,339,2,2,1,2,1,1,NaN
401,416,1,2,1,1,1,1,NaN
402,340,1,1,1,1,1,1,NaN
403,439,1,2,1,1,1,1,NaN
404,373,2,1,2,2,1,1,NaN
405,398,2,1,1,2,2,1,0.663727336790544
406,425,2,2,2,2,1,1,NaN
407,381,2,1,1,2,1,1,NaN
408,363,2,1,1,2,1,1,NaN
409,388,1,1,2,1,1,1,NaN
410,367,1,1,2,1,1,1,NaN
411,393,2,1,1,2,1,1,NaN
412,370,1,2,2,1,1,1,NaN
413,337,1,2,2,1,1,1,NaN
414,341,2,1,1,2,1,1,NaN
415,406,1,1,2,1,1,1,NaN
416,395,2,2,2,2,1,1,NaN
417,366,2,2,1,2,1,1,NaN
418,390,1,2,2,1,1,1,NaN
419,350,2,1,1,2,1,1,NaN
420,357,1,1,1,1,1,0,1.01772348311169
421,410,1,1,2,1,1,1,NaN
422,351,1,2,1,1,1,1,NaN
423,394,1,2,1,1,1,1,NaN
424,354,2,1,1,2,1,1,NaN
425,335,1,1,1,1,1,1,NaN
426,389,2,1,2,2,1,1,NaN
427,401,1,1,2,1,1,1,NaN
428,399,1,2,2,1,1,0,0.784015882976746
429,427,2,1,1,2,1,1,NaN
430,376,1,1,2,1,1,1,NaN
431,375,2,2,2,2,1,1,NaN
432,356,2,2,2,2,1,1,NaN
433,409,2,2,2,2,1,1,NaN
434,362,1,1,1,1,1,1,NaN
435,433,2,2,1,2,2,0,NaN
436,334,2,2,2,2,1,1,NaN
437,355,1,2,1,1,1,1,NaN
438,358,1,2,1,1,2,1,0.642366443937135
439,364,1,2,1,1,1,1,NaN
440,333,1,2,2,1,1,1,NaN
