PresOrder,TrialNumber,Far_Close,Hallway,Perspective,Phase,Catch_Trial,Response,Response_Time
1,1,1,1,2,1,1,1,NaN
2,42,2,2,1,2,1,1,NaN
3,45,1,2,2,1,1,1,NaN
4,97,2,2,1,2,1,1,NaN
5,4,2,2,1,2,1,1,NaN
6,73,2,1,1,2,1,1,NaN
7,63,2,2,1,2,1,1,NaN
8,104,1,2,1,1,1,1,NaN
9,17,1,1,2,1,1,1,NaN
10,110,2,2,2,2,1,1,NaN
11,72,1,1,1,1,1,1,NaN
12,2,2,1,1,2,1,1,NaN
13,62,1,2,2,1,1,1,NaN
14,98,1,1,1,1,1,1,NaN
15,27,1,1,2,1,2,1,0.558286126171879
16,66,1,2,2,1,1,1,NaN
17,21,1,2,1,1,1,1,NaN
18,34,2,2,2,2,1,1,NaN
19,38,2,2,2,2,1,1,NaN
20,96,1,2,1,1,1,1,NaN
21,99,2,1,2,2,1,1,NaN
22,67,2,2,2,2,1,1,NaN
23,7,1,2,2,1,1,1,NaN
24,92,1,2,2,1,1,1,NaN
25,48,2,1,1,2,1,1,NaN
26,28,1,2,1,1,1,1,NaN
27,19,1,1,2,1,2,1,0.499075659541631
28,31,2,1,2,2,1,1,NaN
29,88,1,2,2,1,1,1,NaN
30,89,2,2,1,2,1,1,NaN
31,78,1,1,2,1,2,1,0.499932543778414
32,23,2,2,1,2,1,1,NaN
33,95,2,1,2,2,1,1,NaN
34,15,1,2,1,1,1,1,NaN
35,54,1,2,2,1,1,1,NaN
36,6,2,1,1,2,1,1,NaN
37,94,1,1,2,1,1,1,NaN
38,29,2,2,1,2,1,1,NaN
39,30,1,1,2,1,1,1,NaN
40,86,1,1,2,1,1,1,NaN
41,52,1,1,2,1,1,1,NaN
42,14,2,1,2,2,1,1,NaN
43,40,2,1,2,2,1,1,NaN
44,90,1,1,2,1,1,1,NaN
45,102,1,1,2,1,1,1,NaN
46,10,2,1,2,2,1,1,NaN
47,12,2,2,2,2,1,1,NaN
48,20,2,1,1,2,1,1,NaN
49,77,1,1,2,1,1,1,NaN
50,41,1,2,1,1,1,1,NaN
51,76,2,2,2,2,1,1,NaN
52,105,2,2,1,2,1,1,NaN
53,59,2,2,2,2,1,1,NaN
54,60,1,1,2,1,1,1,NaN
55,106,1,1,2,1,1,1,NaN
56,82,1,1,1,1,1,1,NaN
57,69,2,1,1,2,1,1,NaN
58,53,2,1,1,2,1,1,NaN
59,3,1,2,1,1,1,1,NaN
60,33,1,2,1,1,1,1,NaN
61,84,1,2,2,1,1,1,NaN
62,43,1,1,1,1,1,1,NaN
63,51,2,1,1,2,2,1,0.483566874283497
64,8,2,2,1,2,1,1,NaN
65,70,1,2,2,1,1,1,NaN
66,100,1,2,1,1,1,1,NaN
67,13,1,1,2,1,1,1,NaN
68,68,1,1,1,1,1,1,NaN
69,65,2,1,1,2,1,1,NaN
70,103,2,1,2,2,1,1,NaN
71,18,1,2,1,1,2,0,NaN
72,108,1,2,2,1,1,1,NaN
73,44,2,1,2,2,1,1,NaN
74,87,2,1,2,2,1,1,NaN
75,37,1,2,1,1,1,1,NaN
76,55,2,2,2,2,1,1,NaN
77,5,1,1,2,1,1,1,NaN
78,109,2,2,1,2,2,1,0.568615268635767
79,9,1,1,2,1,1,1,NaN
80,81,2,2,1,2,1,1,NaN
81,57,2,1,2,2,1,1,NaN
82,71,2,2,2,2,1,1,NaN
83,24,1,1,2,1,1,1,NaN
84,83,2,1,1,2,1,1,NaN
85,25,2,1,1,2,1,1,NaN
86,11,1,2,1,1,1,1,NaN
87,79,2,1,1,2,1,1,NaN
88,74,1,2,1,1,1,1,NaN
89,49,1,2,2,1,1,1,NaN
90,85,2,2,1,2,1,1,NaN
91,101,2,2,2,2,1,1,NaN
92,36,2,1,1,2,1,1,NaN
93,47,1,1,1,1,1,1,NaN
94,107,2,1,1,2,1,1,NaN
95,46,2,2,1,2,1,1,NaN
96,35,1,1,1,1,1,1,NaN
97,93,2,2,2,2,1,1,NaN
98,58,1,2,2,1,1,1,NaN
99,22,1,2,2,1,2,1,0.517136953101726
100,91,2,1,2,2,1,1,NaN
101,75,2,2,1,2,2,0,NaN
102,50,2,2,1,2,1,1,NaN
103,32,2,1,1,2,2,1,0.485133731594033
104,39,1,1,2,1,1,1,NaN
105,16,2,2,1,2,1,1,NaN
106,26,2,1,1,2,2,1,0.467425376005849
107,80,1,2,2,1,1,1,NaN
108,64,1,1,1,1,1,1,NaN
109,61,2,1,2,2,1,1,NaN
110,56,1,1,1,1,1,1,NaN
111,213,1,1,2,1,1,1,NaN
112,170,1,2,1,1,1,1,NaN
113,214,2,1,1,2,1,1,NaN
114,124,2,1,2,2,2,1,0.515239399350321
115,126,2,1,2,2,1,1,NaN
116,128,2,2,2,2,1,1,NaN
117,206,2,1,1,2,1,1,NaN
118,143,2,1,1,2,1,1,NaN
119,174,1,2,2,1,1,1,NaN
120,162,2,2,1,2,2,1,0.651715480486018
121,145,2,2,1,2,1,1,NaN
122,182,1,2,2,1,1,1,NaN
123,151,2,1,2,2,1,1,NaN
124,154,1,1,2,1,1,1,NaN
125,132,2,2,2,2,1,1,NaN
126,171,2,2,2,2,1,1,NaN
127,220,2,2,2,2,1,1,NaN
128,202,1,2,1,1,1,1,NaN
129,121,2,1,1,2,1,1,NaN
130,164,1,1,1,1,1,1,NaN
131,125,1,1,2,1,1,1,NaN
132,118,1,2,2,1,1,1,NaN
133,120,1,1,1,1,1,1,NaN
134,197,1,2,2,1,2,1,0.563517860973661
135,188,2,2,1,2,2,1,0.470243904723247
136,116,2,1,2,2,1,1,NaN
137,130,2,1,1,2,1,1,NaN
138,194,1,1,1,1,1,1,NaN
139,147,2,1,2,2,1,1,NaN
140,152,1,2,1,1,1,1,NaN
141,175,2,2,1,2,1,1,NaN
142,159,1,1,2,1,1,1,NaN
143,123,2,2,1,2,1,1,NaN
144,134,2,1,1,2,1,1,NaN
145,139,1,2,2,1,1,1,NaN
146,201,2,1,1,2,1,1,NaN
147,193,2,2,2,2,1,1,NaN
148,183,1,2,2,1,2,1,0.506226311672435
149,144,1,2,2,1,1,1,NaN
150,150,1,1,2,1,1,1,NaN
151,212,2,2,2,2,1,1,NaN
152,165,2,1,2,2,1,1,NaN
153,180,1,1,1,1,1,1,NaN
154,195,1,1,2,1,2,1,0.530142688197884
155,215,1,2,1,1,1,1,NaN
156,156,2,1,1,2,1,1,NaN
157,196,2,1,2,2,1,1,NaN
158,187,1,2,2,1,1,1,NaN
159,177,2,1,2,2,1,1,NaN
160,136,2,2,2,2,1,1,NaN
161,129,1,1,2,1,1,1,NaN
162,179,2,2,1,2,1,1,NaN
163,153,2,2,2,2,1,1,NaN
164,160,2,1,2,2,1,1,NaN
165,158,2,2,2,2,1,1,NaN
166,131,1,2,2,1,1,1,NaN
167,185,1,1,1,1,1,1,NaN
168,111,1,1,1,1,1,1,NaN
169,217,1,1,2,1,1,1,NaN
170,216,2,2,1,2,1,1,NaN
171,176,1,1,1,1,1,1,NaN
172,167,2,2,1,2,1,1,NaN
173,189,2,2,2,2,1,1,NaN
174,114,2,2,1,2,1,1,NaN
175,184,2,2,1,2,1,1,NaN
176,219,1,2,2,1,1,1,NaN
177,200,1,1,1,1,1,1,NaN
178,137,1,1,1,1,1,1,NaN
179,192,1,2,2,1,1,1,NaN
180,210,2,1,1,2,1,1,NaN
181,127,1,2,1,1,1,1,NaN
182,178,1,2,1,1,1,1,NaN
183,138,2,1,1,2,1,1,NaN
184,199,2,2,1,2,1,1,NaN
185,211,1,2,1,1,1,1,NaN
186,173,2,1,2,2,1,1,NaN
187,218,2,1,2,2,1,1,NaN
188,161,1,2,2,1,1,1,NaN
189,146,1,1,2,1,1,1,NaN
190,205,1,2,2,1,2,1,0.591053461323099
191,208,2,2,1,2,1,1,NaN
192,204,1,1,1,1,1,1,NaN
193,190,1,1,2,1,1,1,NaN
194,168,1,1,1,1,1,1,NaN
195,133,1,1,2,1,1,1,NaN
196,157,1,2,2,1,1,1,NaN
197,135,1,2,1,1,1,1,NaN
198,149,2,2,2,2,1,1,NaN
199,155,2,2,2,2,2,1,0.684244011832561
200,148,1,2,1,1,1,1,NaN
201,186,2,1,2,2,1,1,NaN
202,166,1,2,1,1,1,1,NaN
203,119,2,2,1,2,1,1,NaN
204,113,1,2,1,1,1,1,NaN
205,181,2,1,1,2,1,1,NaN
206,117,2,1,1,2,2,1,0.496720398497928
207,141,1,1,2,1,2,1,0.467208521082284
208,169,2,1,2,2,1,1,NaN
209,163,2,2,1,2,1,1,NaN
210,112,2,1,2,2,1,1,NaN
211,191,2,1,1,2,1,1,NaN
212,122,1,2,1,1,1,1,NaN
213,203,2,2,1,2,1,1,NaN
214,198,1,2,2,1,1,1,NaN
215,142,1,1,1,1,1,1,NaN
216,207,1,2,1,1,1,1,NaN
217,172,1,1,1,1,1,1,NaN
218,115,1,1,2,1,1,1,NaN
219,140,2,2,1,2,1,1,NaN
220,209,1,1,1,1,1,1,NaN
221,295,1,2,1,1,1,1,NaN
222,240,1,2,1,1,1,1,NaN
223,303,1,2,2,1,1,1,NaN
224,271,2,1,2,2,1,1,NaN
225,236,1,2,2,1,1,1,NaN
226,278,1,1,2,1,1,1,NaN
227,325,1,2,1,1,1,1,NaN
228,329,1,2,1,1,1,1,NaN
229,322,2,2,1,2,1,1,NaN
230,270,1,1,2,1,1,1,NaN
231,243,2,1,2,2,1,1,NaN
232,306,2,1,1,2,1,1,NaN
233,265,2,2,1,2,1,1,NaN
234,316,1,2,2,1,1,1,NaN
235,268,1,2,2,1,1,1,NaN
236,262,2,1,1,2,2,1,0.570230413479294
237,221,1,1,1,1,1,1,NaN
238,305,1,1,1,1,1,1,NaN
239,261,1,1,2,1,1,1,NaN
240,247,1,1,1,1,2,1,0.533611196386119
241,226,2,1,2,2,1,1,NaN
242,237,2,2,2,2,1,1,NaN
243,266,1,1,2,1,1,1,NaN
244,279,2,1,1,2,1,1,NaN
245,281,2,2,1,2,1,1,NaN
246,246,1,1,1,1,1,1,NaN
247,288,1,2,2,1,1,1,NaN
248,319,1,1,2,1,2,1,0.575451320166394
249,297,1,1,2,1,1,1,NaN
250,276,1,2,2,1,1,1,NaN
251,244,1,2,1,1,1,1,NaN
252,284,1,2,2,1,1,1,NaN
253,250,1,2,1,1,1,1,NaN
254,232,1,2,2,1,1,1,NaN
255,224,2,2,2,2,1,1,NaN
256,257,2,1,2,2,1,1,NaN
257,330,2,2,1,2,1,1,NaN
258,302,2,1,2,2,1,1,NaN
259,324,2,1,1,2,1,1,NaN
260,291,2,2,2,2,1,1,NaN
261,287,2,1,1,2,1,1,NaN
262,311,1,2,1,1,1,1,NaN
263,228,1,2,1,1,1,1,NaN
264,292,1,1,2,1,1,1,NaN
265,308,2,2,2,2,1,1,NaN
266,289,2,2,2,2,2,1,0.592441215780127
267,313,2,2,2,2,1,1,NaN
268,241,2,2,1,2,1,1,NaN
269,255,2,2,1,2,1,1,NaN
270,286,1,1,2,1,1,1,NaN
271,254,1,2,1,1,1,1,NaN
272,234,1,1,1,1,1,1,NaN
273,304,2,2,1,2,1,1,NaN
274,282,1,1,1,1,1,1,NaN
275,310,2,1,1,2,1,1,NaN
276,327,1,1,1,1,1,1,NaN
277,235,2,1,2,2,1,1,NaN
278,258,1,2,1,1,1,1,NaN
279,312,1,1,2,1,2,1,0.585743588513651
280,300,2,2,1,2,1,1,NaN
281,309,1,1,2,1,1,1,NaN
282,245,2,2,1,2,1,1,NaN
283,249,2,2,1,2,2,1,0.507236838062454
284,238,1,1,2,1,1,1,NaN
285,225,1,1,1,1,1,1,NaN
286,260,2,1,2,2,2,1,0.471265259226129
287,256,1,1,1,1,1,1,NaN
288,239,2,1,1,2,1,1,NaN
289,283,2,1,2,2,1,1,NaN
290,223,1,2,2,1,1,1,NaN
291,274,1,1,1,1,1,1,NaN
292,263,2,1,1,2,1,1,NaN
293,231,2,1,2,2,1,1,NaN
294,290,1,2,1,1,2,1,0.523490421948736
295,298,2,1,1,2,1,1,NaN
296,294,2,1,2,2,1,1,NaN
297,227,2,1,1,2,2,1,0.460641123829191
298,285,2,2,2,2,1,1,NaN
299,277,2,2,1,2,1,1,NaN
300,230,1,1,1,1,1,1,NaN
301,301,1,1,2,1,1,1,NaN
302,280,1,2,2,1,1,1,NaN
303,272,1,2,1,1,1,1,NaN
304,326,2,2,1,2,1,1,NaN
305,275,2,1,1,2,1,1,NaN
306,307,1,2,1,1,1,1,NaN
307,273,2,2,1,2,1,1,NaN
308,323,1,1,1,1,1,1,NaN
309,267,2,1,2,2,1,1,NaN
310,320,2,1,1,2,1,1,NaN
311,296,2,2,2,2,1,1,NaN
312,293,1,2,2,1,2,1,0.511097792204964
313,317,2,2,1,2,1,1,NaN
314,321,1,2,2,1,1,1,NaN
315,269,2,2,2,2,1,1,NaN
316,318,1,1,2,1,1,1,NaN
317,314,1,1,2,1,1,1,NaN
318,233,2,2,2,2,1,1,NaN
319,315,2,1,2,2,1,1,NaN
320,328,2,1,2,2,1,1,NaN
321,229,2,2,1,2,1,1,NaN
322,222,2,1,1,2,1,1,NaN
323,264,1,2,1,1,1,1,NaN
324,253,2,1,2,2,1,1,NaN
325,252,1,1,1,1,1,1,NaN
326,242,1,1,1,1,1,1,NaN
327,251,2,2,1,2,1,1,NaN
328,259,2,2,2,2,1,1,NaN
329,248,2,1,1,2,1,1,NaN
330,299,1,2,1,1,1,1,NaN
331,399,1,2,1,1,1,1,NaN
332,421,1,1,2,1,1,1,NaN
333,381,1,1,1,1,2,1,0.436284013812838
334,403,1,2,2,1,1,1,NaN
335,384,1,2,1,1,1,1,NaN
336,426,2,2,2,2,1,1,NaN
337,343,1,1,1,1,1,1,NaN
338,334,2,2,2,2,1,1,NaN
339,358,2,2,2,2,1,1,NaN
340,331,1,1,1,1,1,1,NaN
341,420,2,2,1,2,1,1,NaN
342,406,2,1,2,2,1,1,NaN
343,410,2,1,1,2,1,1,NaN
344,339,1,1,1,1,1,1,NaN
345,436,2,1,1,2,1,1,NaN
346,402,2,1,2,2,1,1,NaN
347,370,2,1,1,2,2,1,0.481512459207806
348,346,2,2,2,2,1,1,NaN
349,431,1,1,1,1,1,1,NaN
350,418,2,1,1,2,1,1,NaN
351,438,1,2,1,1,2,1,0.50388421995558
352,373,2,1,1,2,1,1,NaN
353,355,1,1,2,1,1,1,NaN
354,435,1,1,1,1,1,1,NaN
355,335,1,1,2,1,1,1,NaN
356,337,1,2,2,1,1,1,NaN
357,386,1,1,1,1,1,1,NaN
358,437,2,2,2,2,2,1,0.593592800298211
359,344,2,1,1,2,1,1,NaN
360,388,1,2,2,1,1,1,NaN
361,440,2,2,1,2,1,1,NaN
362,356,2,1,2,2,1,1,NaN
363,383,2,1,2,2,1,1,NaN
364,368,2,1,2,2,1,1,NaN
365,413,1,1,1,1,1,1,NaN
366,385,2,2,1,2,1,1,NaN
367,340,2,1,2,2,1,1,NaN
368,342,2,2,2,2,1,1,NaN
369,332,2,1,2,2,1,1,NaN
370,412,2,2,1,2,1,1,NaN
371,367,1,1,2,1,1,1,NaN
372,348,2,1,2,2,1,1,NaN
373,396,2,2,1,2,1,1,NaN
374,361,1,2,2,1,1,1,NaN
375,379,1,2,1,1,1,1,NaN
376,394,1,1,2,1,2,1,0.645151009750407
377,338,2,2,2,2,1,1,NaN
378,374,1,2,2,1,1,1,NaN
379,407,1,2,2,1,1,1,NaN
380,400,2,2,2,2,1,1,NaN
381,345,1,2,2,1,1,1,NaN
382,425,1,2,1,1,1,1,NaN
383,377,1,1,1,1,1,1,NaN
384,430,2,2,2,2,1,1,NaN
385,351,1,1,2,1,1,1,NaN
386,362,2,2,2,2,1,1,NaN
387,371,2,2,1,2,1,1,NaN
388,336,2,1,2,2,1,1,NaN
389,363,1,1,1,1,1,1,NaN
390,372,1,1,1,1,1,1,NaN
391,380,2,2,1,2,1,1,NaN
392,434,2,2,1,2,1,1,NaN
393,364,2,1,1,2,1,1,NaN
394,393,2,1,2,2,1,1,NaN
395,416,2,2,2,2,1,1,NaN
396,404,2,2,2,2,1,1,NaN
397,429,1,2,2,1,1,1,NaN
398,411,1,2,2,1,1,1,NaN
399,382,1,1,1,1,1,1,NaN
400,389,1,2,2,1,2,1,0.482551080162011
401,414,2,1,1,2,1,1,NaN
402,375,2,2,1,2,1,1,NaN
403,397,1,1,2,1,1,1,NaN
404,369,1,2,2,1,1,1,NaN
405,387,2,1,1,2,1,1,NaN
406,433,1,2,1,1,1,1,NaN
407,341,1,2,2,1,1,1,NaN
408,439,1,2,1,1,1,1,NaN
409,365,1,2,2,1,1,1,NaN
410,378,2,1,1,2,1,1,NaN
411,395,1,2,2,1,1,1,NaN
412,405,1,1,2,1,1,1,NaN
413,376,2,2,2,2,2,1,0.78160660526737
414,428,2,1,2,2,1,1,NaN
415,350,2,2,1,2,1,1,NaN
416,349,1,2,1,1,1,1,NaN
417,415,1,2,1,1,1,1,NaN
418,409,1,1,1,1,1,1,NaN
419,398,2,1,1,2,1,1,NaN
420,390,2,2,1,2,1,1,NaN
421,427,1,1,1,1,1,1,NaN
422,408,2,2,2,2,1,1,NaN
423,366,2,2,2,2,1,1,NaN
424,347,1,1,2,1,1,1,NaN
425,333,1,2,2,1,1,1,NaN
426,352,2,1,1,2,1,1,NaN
427,432,2,1,1,2,1,1,NaN
428,357,1,2,2,1,1,1,NaN
429,392,2,1,2,2,2,1,0.476802522423895
430,424,2,2,2,2,2,0,NaN
431,423,2,1,2,2,1,1,NaN
432,417,1,1,1,1,1,1,NaN
433,401,1,1,1,1,1,1,NaN
434,353,1,2,2,1,1,1,NaN
435,360,2,1,2,2,1,1,NaN
436,391,1,1,2,1,1,1,NaN
437,354,2,2,1,2,1,1,NaN
438,419,1,2,2,1,1,1,NaN
439,422,1,2,1,1,2,1,0.535324964859683
440,359,1,1,1,1,1,1,NaN
