PresOrder,TrialNumber,Far_Close,Hallway,Perspective,Phase,Catch_Trial,Response,Response_Time
1,94,1,1,2,1,1,1,NaN
2,79,2,1,1,2,1,1,NaN
3,16,2,2,1,2,1,1,NaN
4,63,2,2,2,2,1,1,NaN
5,88,1,2,1,1,1,1,NaN
6,108,2,1,1,2,1,1,NaN
7,22,1,1,1,1,2,1,0.376555640457809
8,85,2,2,1,2,1,1,NaN
9,99,1,1,1,1,1,1,NaN
10,95,2,1,1,2,1,1,NaN
11,67,2,2,1,2,2,1,0.464507619401047
12,28,2,1,2,2,1,1,NaN
13,60,1,1,1,1,1,1,NaN
14,1,1,1,1,1,1,1,NaN
15,11,1,2,1,1,1,1,NaN
16,70,2,1,2,2,1,1,NaN
17,80,1,2,1,1,1,1,NaN
18,4,2,2,2,2,1,1,NaN
19,75,1,2,2,1,1,1,NaN
20,90,1,1,1,1,1,1,NaN
21,82,1,1,1,1,1,1,NaN
22,14,2,1,2,2,1,1,NaN
23,76,2,1,1,2,2,1,0.421349891322279
24,9,1,1,2,1,1,1,NaN
25,102,2,2,2,2,1,1,NaN
26,17,1,1,2,1,1,1,NaN
27,74,2,1,2,2,1,1,NaN
28,50,2,2,1,2,1,1,NaN
29,66,1,2,1,1,1,1,NaN
30,42,2,2,1,2,1,1,NaN
31,43,1,1,2,1,1,1,NaN
32,10,2,1,2,2,1,1,NaN
33,51,1,1,2,1,1,1,NaN
34,44,2,1,1,2,1,1,NaN
35,23,2,1,2,2,1,1,NaN
36,55,2,1,2,2,2,1,0.418998706760249
37,38,1,1,1,1,1,1,NaN
38,69,1,1,2,1,1,1,NaN
39,61,2,1,1,2,1,1,NaN
40,110,2,2,1,2,1,1,NaN
41,56,1,1,1,1,1,1,NaN
42,72,2,2,1,2,1,1,NaN
43,45,1,2,1,1,1,1,NaN
44,52,2,1,2,2,1,1,NaN
45,41,1,2,2,1,1,1,NaN
46,20,2,2,2,2,1,1,NaN
47,37,2,2,2,2,1,1,NaN
48,48,2,1,1,2,1,1,NaN
49,83,2,1,2,2,1,1,NaN
50,101,1,2,2,1,1,1,NaN
51,65,2,1,1,2,1,1,NaN
52,54,2,2,2,2,1,1,NaN
53,104,2,1,2,2,1,1,NaN
54,100,2,1,1,2,1,1,NaN
55,6,2,1,1,2,1,1,NaN
56,59,2,2,1,2,1,1,NaN
57,105,1,2,1,1,1,1,NaN
58,32,1,1,1,1,2,1,0.521814597069351
59,30,2,2,2,2,1,1,NaN
60,96,1,2,2,1,2,1,0.344944880027469
61,36,1,2,2,1,1,1,NaN
62,106,2,2,1,2,1,1,NaN
63,40,2,1,2,2,1,1,NaN
64,49,1,2,1,1,1,1,NaN
65,68,2,2,2,2,1,1,NaN
66,34,2,1,1,2,1,1,NaN
67,26,2,2,1,2,1,1,NaN
68,29,1,2,1,1,1,1,NaN
69,39,2,2,1,2,2,1,0.495298362510766
70,98,2,2,1,2,1,1,NaN
71,24,1,2,1,1,1,1,NaN
72,71,1,2,1,1,1,1,NaN
73,2,2,1,2,2,1,1,NaN
74,7,1,2,2,1,1,1,NaN
75,64,1,1,1,1,1,1,NaN
76,27,1,1,1,1,1,1,NaN
77,19,1,2,1,1,1,1,NaN
78,109,1,2,2,1,1,1,NaN
79,35,2,1,2,2,2,1,0.51394541587797
80,8,2,2,1,2,1,1,NaN
81,97,1,2,2,1,1,1,NaN
82,57,2,1,2,2,1,1,NaN
83,78,1,1,1,1,1,1,NaN
84,81,2,2,1,2,1,1,NaN
85,92,1,2,2,1,1,1,NaN
86,21,1,1,1,1,1,1,NaN
87,58,1,2,1,1,1,1,NaN
88,77,2,2,1,2,1,1,NaN
89,107,1,1,1,1,1,1,NaN
90,3,1,2,1,1,1,1,NaN
91,5,1,1,1,1,1,1,NaN
92,86,1,1,2,1,1,1,NaN
93,12,2,2,2,2,1,1,NaN
94,25,1,2,1,1,2,1,0.535121002306369
95,103,1,1,1,1,1,1,NaN
96,46,2,2,1,2,1,1,NaN
97,33,1,1,1,1,1,1,NaN
98,87,2,1,2,2,1,1,NaN
99,53,1,2,2,1,1,1,NaN
100,47,1,1,1,1,1,1,NaN
101,62,1,2,1,1,1,1,NaN
102,89,2,2,2,2,1,1,NaN
103,15,1,2,2,1,1,1,NaN
104,18,2,1,2,2,1,1,NaN
105,84,1,2,2,1,1,1,NaN
106,93,2,2,2,2,1,1,NaN
107,31,1,1,1,1,2,1,0.458021229727819
108,91,2,1,2,2,1,1,NaN
109,73,1,1,1,1,1,1,NaN
110,13,1,1,2,1,1,1,NaN
111,122,2,1,2,2,1,1,NaN
112,127,2,1,2,2,1,1,NaN
113,131,2,2,1,2,1,1,NaN
114,143,2,2,1,2,2,1,0.479326462005702
115,152,2,2,1,2,1,1,NaN
116,164,1,2,2,1,1,1,NaN
117,117,1,2,1,1,1,1,NaN
118,210,2,1,2,2,1,1,NaN
119,134,1,2,2,1,1,1,NaN
120,148,2,2,2,2,1,1,NaN
121,176,2,1,2,2,1,1,NaN
122,202,1,2,2,1,1,1,NaN
123,136,1,1,2,1,1,1,NaN
124,144,2,2,2,2,1,1,NaN
125,203,2,2,2,2,1,1,NaN
126,172,1,2,2,1,1,1,NaN
127,212,2,2,2,2,1,1,NaN
128,119,2,1,2,2,2,1,0.654798754814692
129,140,1,1,1,1,1,1,NaN
130,193,1,2,1,1,1,1,NaN
131,181,1,2,1,1,1,1,NaN
132,132,1,1,2,1,1,1,NaN
133,130,1,2,2,1,1,1,NaN
134,208,2,2,2,2,1,1,NaN
135,214,2,1,2,2,1,1,NaN
136,165,2,2,1,2,1,1,NaN
137,198,1,2,2,1,1,1,NaN
138,123,1,2,1,1,1,1,NaN
139,142,1,2,1,1,1,1,NaN
140,195,2,2,1,2,1,1,NaN
141,151,1,2,2,1,1,1,NaN
142,150,2,1,1,2,1,1,NaN
143,173,2,1,1,2,2,1,0.438940170050046
144,159,2,1,1,2,1,1,NaN
145,206,1,2,1,1,1,1,NaN
146,157,1,2,1,1,2,1,0.380210307225752
147,189,1,2,1,1,1,1,NaN
148,192,2,1,1,2,1,1,NaN
149,218,2,1,1,2,1,1,NaN
150,163,2,1,2,2,1,0,0.578022950534432
151,194,1,1,2,1,2,1,0.518084425494635
152,167,2,1,1,2,1,1,NaN
153,135,2,2,2,2,1,1,NaN
154,121,1,2,2,1,2,1,0.47307595168968
155,169,2,2,1,2,1,1,NaN
156,118,2,2,2,2,1,1,NaN
157,186,2,2,2,2,1,1,NaN
158,114,2,2,1,2,1,1,NaN
159,138,1,2,2,1,1,1,NaN
160,188,2,1,2,2,1,1,NaN
161,162,1,1,2,1,1,1,NaN
162,180,2,1,2,2,1,1,NaN
163,139,2,2,1,2,1,1,NaN
164,174,2,2,1,2,1,1,NaN
165,185,1,2,1,1,1,1,NaN
166,145,1,1,2,1,1,1,NaN
167,184,2,1,1,2,1,1,NaN
168,211,1,2,1,1,1,1,NaN
169,213,1,1,2,1,1,1,NaN
170,160,1,2,1,1,1,1,NaN
171,216,2,2,1,2,1,1,NaN
172,177,1,2,1,1,1,1,NaN
173,178,2,2,1,2,1,1,NaN
174,199,2,2,2,2,1,1,NaN
175,146,2,1,1,2,1,1,NaN
176,133,2,1,2,2,1,1,NaN
177,125,2,2,1,2,1,1,NaN
178,219,1,2,2,1,1,1,NaN
179,124,1,2,2,1,2,1,0.544387315075255
180,207,1,1,2,1,2,1,0.450063959595354
181,120,1,1,2,1,1,1,NaN
182,182,2,2,1,2,1,1,NaN
183,209,1,1,2,1,1,1,NaN
184,190,2,2,1,2,1,1,NaN
185,116,2,1,2,2,1,1,NaN
186,205,2,1,2,2,1,1,NaN
187,215,1,2,1,1,1,1,NaN
188,200,1,1,2,1,1,1,NaN
189,126,1,1,1,1,1,1,NaN
190,196,1,1,1,1,1,1,NaN
191,113,1,2,2,1,1,1,NaN
192,201,2,1,2,2,1,1,NaN
193,141,2,1,1,2,1,1,NaN
194,112,2,1,1,2,1,1,NaN
195,197,2,1,1,2,1,1,NaN
196,183,1,1,2,1,1,1,NaN
197,220,2,2,1,2,1,1,NaN
198,204,1,1,2,1,1,1,NaN
199,175,1,1,1,1,1,1,NaN
200,179,1,1,2,1,1,1,NaN
201,191,1,1,2,1,1,1,NaN
202,154,2,1,2,2,1,1,NaN
203,137,2,1,1,2,1,1,NaN
204,171,2,1,1,2,1,1,NaN
205,158,1,1,2,1,1,1,NaN
206,217,1,1,2,1,1,1,NaN
207,166,1,1,2,1,1,1,NaN
208,155,1,2,1,1,1,1,NaN
209,149,1,1,2,1,1,1,NaN
210,161,2,2,2,2,1,1,NaN
211,147,1,2,2,1,1,1,NaN
212,168,1,2,1,1,1,1,NaN
213,128,2,2,2,2,2,1,0.541468673845884
214,170,1,1,1,1,1,1,NaN
215,111,1,1,1,1,1,1,NaN
216,115,1,1,2,1,1,1,NaN
217,156,2,2,1,2,1,1,NaN
218,129,2,2,1,2,2,1,0.49884650311742
219,187,1,1,1,1,1,1,NaN
220,153,1,1,2,1,1,1,NaN
221,227,1,2,2,1,1,1,NaN
222,266,2,1,2,2,1,1,NaN
223,258,2,2,1,2,1,1,NaN
224,287,1,1,2,1,1,1,NaN
225,289,1,2,2,1,1,1,NaN
226,304,2,2,2,2,2,1,0.425513191245955
227,248,2,1,2,2,1,1,NaN
228,285,1,2,2,1,1,1,NaN
229,247,1,1,2,1,1,1,NaN
230,251,1,1,1,1,1,1,NaN
231,311,1,2,1,1,1,1,NaN
232,282,2,2,2,2,1,1,NaN
233,298,1,2,1,1,1,1,NaN
234,224,2,2,2,2,1,1,NaN
235,228,2,2,2,2,1,1,NaN
236,309,1,1,1,1,1,1,NaN
237,291,1,1,1,1,1,1,NaN
238,263,2,2,2,2,1,1,NaN
239,262,1,1,2,1,2,1,0.504876937407971
240,231,1,2,1,1,1,1,NaN
241,256,2,1,2,2,1,1,NaN
242,257,1,2,2,1,1,1,NaN
243,269,2,2,1,2,1,1,NaN
244,313,1,1,1,1,1,1,NaN
245,225,1,1,1,1,1,1,NaN
246,296,1,1,2,1,1,1,NaN
247,235,2,1,2,2,1,1,NaN
248,254,2,2,2,2,1,1,NaN
249,306,2,1,2,2,1,1,NaN
250,328,1,2,1,1,2,1,0.433112837836234
251,230,2,1,2,2,1,1,NaN
252,310,2,1,1,2,1,1,NaN
253,280,1,2,1,1,1,1,NaN
254,243,1,1,1,1,1,1,NaN
255,268,1,2,1,1,1,1,NaN
256,260,2,1,2,2,1,1,NaN
257,315,1,2,2,1,1,1,NaN
258,272,1,2,2,1,1,1,NaN
259,270,1,1,2,1,1,1,NaN
260,253,1,2,2,1,1,1,NaN
261,320,1,2,1,1,1,1,NaN
262,290,2,2,2,2,1,1,NaN
263,324,1,2,2,1,1,1,NaN
264,278,1,1,1,1,1,1,NaN
265,303,2,2,2,2,1,1,NaN
266,245,1,2,2,1,1,1,NaN
267,319,2,2,1,2,2,1,0.695379661873631
268,297,2,1,2,2,1,1,NaN
269,238,2,2,2,2,1,1,NaN
270,308,2,2,2,2,1,1,NaN
271,305,1,1,2,1,1,1,NaN
272,292,2,1,2,2,2,1,0.438541867561071
273,330,2,2,1,2,1,1,NaN
274,284,2,1,1,2,1,1,NaN
275,250,2,2,2,2,1,1,NaN
276,240,2,1,1,2,1,1,NaN
277,265,1,2,1,1,2,1,0.457125414946859
278,294,1,2,1,1,1,1,NaN
279,277,2,2,1,2,1,1,NaN
280,312,2,2,1,2,1,1,NaN
281,246,2,2,1,2,1,1,NaN
282,321,2,2,2,2,1,1,NaN
283,281,2,1,2,2,2,1,0.416394376237804
284,242,2,2,2,2,1,1,NaN
285,255,1,1,1,1,1,1,NaN
286,273,2,2,2,2,1,1,NaN
287,300,1,1,2,1,1,1,NaN
288,301,2,1,1,2,1,1,NaN
289,267,1,1,1,1,2,1,0.545198260111647
290,318,2,1,2,2,1,1,NaN
291,239,1,1,2,1,1,1,NaN
292,222,2,1,2,2,1,1,NaN
293,221,1,1,2,1,1,1,NaN
294,233,1,1,2,1,2,1,0.442444705166963
295,327,2,1,1,2,1,1,NaN
296,234,1,1,1,1,1,1,NaN
297,226,2,1,1,2,1,1,NaN
298,286,2,2,2,2,1,1,NaN
299,323,2,1,1,2,1,1,NaN
300,279,2,1,2,2,1,1,NaN
301,326,1,1,1,1,1,1,NaN
302,223,1,2,2,1,1,1,NaN
303,259,1,1,1,1,1,1,NaN
304,241,1,2,2,1,1,1,NaN
305,283,1,1,1,1,1,1,NaN
306,275,2,1,1,2,1,1,NaN
307,288,2,1,1,2,1,1,NaN
308,276,1,2,1,1,1,1,NaN
309,314,2,1,2,2,1,1,NaN
310,317,1,1,1,1,1,1,NaN
311,229,1,1,2,1,1,1,NaN
312,264,1,1,1,1,1,1,NaN
313,299,2,2,1,2,1,1,NaN
314,244,2,1,2,2,1,1,NaN
315,249,1,2,2,1,1,1,NaN
316,307,1,2,1,1,1,1,NaN
317,329,1,2,2,1,1,1,NaN
318,293,2,1,1,2,1,1,NaN
319,261,1,2,2,1,1,1,NaN
320,271,2,1,2,2,1,1,NaN
321,252,2,1,1,2,1,0,0.28084276240952
322,325,2,2,2,2,1,1,NaN
323,274,1,1,1,1,1,1,NaN
324,232,2,2,1,2,1,1,NaN
325,237,1,2,1,1,1,1,NaN
326,316,2,2,1,2,1,1,NaN
327,302,1,2,1,1,1,1,NaN
328,295,2,2,1,2,1,1,NaN
329,322,1,1,1,1,1,1,NaN
330,236,2,1,1,2,2,1,0.50425270580854
331,395,2,2,2,2,1,1,NaN
332,417,1,2,1,1,1,1,NaN
333,392,1,1,2,1,1,1,NaN
334,434,1,2,1,1,1,1,NaN
335,427,1,1,2,1,1,1,NaN
336,389,2,1,2,2,1,1,NaN
337,376,1,1,1,1,1,1,NaN
338,394,1,2,2,1,1,1,NaN
339,412,1,2,2,1,1,1,NaN
340,354,1,2,1,1,1,1,NaN
341,375,1,2,2,1,2,1,0.67906184399726
342,418,2,2,1,2,1,1,NaN
343,422,2,2,1,2,1,1,NaN
344,331,1,1,2,1,1,1,NaN
345,401,2,1,2,2,1,1,NaN
346,337,1,2,1,1,2,1,0.465307150918306
347,430,2,2,1,2,2,1,0.46152547219026
348,439,1,2,1,1,1,1,NaN
349,344,1,1,2,1,1,1,NaN
350,385,2,1,1,2,1,1,NaN
351,419,1,1,1,1,1,1,NaN
352,423,1,1,2,1,1,1,NaN
353,380,1,1,1,1,1,1,NaN
354,410,1,1,2,1,1,1,NaN
355,415,2,1,1,2,1,1,NaN
356,352,1,1,1,1,1,1,NaN
357,332,2,1,1,2,1,1,NaN
358,372,1,2,1,1,1,1,NaN
359,359,2,2,1,2,1,1,NaN
360,379,2,2,2,2,1,1,NaN
361,403,2,2,2,2,1,1,NaN
362,413,2,2,2,2,1,1,NaN
363,333,1,2,2,1,1,1,NaN
364,432,1,1,2,1,1,1,NaN
365,384,1,1,2,1,1,1,NaN
366,404,1,1,2,1,1,1,NaN
367,349,2,1,1,2,1,1,NaN
368,421,1,2,2,1,1,1,NaN
369,391,2,2,2,2,1,1,NaN
370,411,2,1,1,2,1,1,NaN
371,345,2,1,2,2,1,1,NaN
372,339,2,2,1,2,1,1,NaN
373,368,1,2,2,1,1,1,NaN
374,396,1,1,1,1,1,1,NaN
375,346,1,2,2,1,1,1,NaN
376,341,2,1,2,2,1,1,NaN
377,361,2,1,2,2,1,1,NaN
378,416,2,1,1,2,2,1,0.481447620297331
379,334,2,2,1,2,1,1,NaN
380,370,1,1,1,1,1,1,NaN
381,360,1,1,2,1,1,1,NaN
382,369,2,2,1,2,1,1,NaN
383,363,1,1,2,1,2,1,0.747030510086915
384,424,2,1,1,2,1,1,NaN
385,414,1,1,1,1,1,1,NaN
386,338,1,2,1,1,1,1,NaN
387,436,1,1,1,1,1,1,NaN
388,420,2,1,2,2,1,1,NaN
389,342,1,2,2,1,1,1,NaN
390,402,1,2,1,1,1,1,NaN
391,429,1,2,1,1,1,1,NaN
392,383,2,2,2,2,1,1,NaN
393,347,2,2,2,2,1,1,NaN
394,336,2,1,1,2,1,1,NaN
395,400,1,1,2,1,1,1,NaN
396,364,1,2,2,1,1,1,NaN
397,355,2,2,1,2,1,1,NaN
398,378,1,2,1,1,1,1,NaN
399,397,2,1,1,2,1,1,NaN
400,406,2,1,2,2,1,1,NaN
401,426,2,2,1,2,1,1,NaN
402,435,2,2,2,2,1,1,NaN
403,367,2,1,2,2,1,1,NaN
404,399,2,2,1,2,1,1,NaN
405,366,1,1,2,1,1,1,NaN
406,351,2,2,1,2,1,1,NaN
407,353,2,1,2,2,1,1,NaN
408,350,1,2,2,1,1,1,NaN
409,356,1,1,1,1,1,1,NaN
410,425,1,2,2,1,1,1,NaN
411,374,2,2,2,2,1,1,NaN
412,357,2,1,1,2,1,1,NaN
413,408,1,1,1,1,2,1,0.612304181357104
414,348,1,1,1,1,1,1,NaN
415,388,1,1,1,1,1,1,NaN
416,393,2,1,2,2,1,1,NaN
417,437,2,1,1,2,1,1,NaN
418,438,1,2,2,1,2,1,0.525403709274542
419,407,1,2,1,1,1,1,NaN
420,365,2,2,1,2,1,1,NaN
421,405,2,1,2,2,2,1,0.420184541942945
422,398,1,2,2,1,1,1,NaN
423,377,2,1,2,2,1,1,NaN
424,431,2,2,2,2,1,1,NaN
425,381,2,1,2,2,1,1,NaN
426,387,2,2,2,2,1,1,NaN
427,371,2,1,1,2,1,1,NaN
428,362,2,2,2,2,2,1,0.468277884612689
429,340,1,1,2,1,1,1,NaN
430,358,1,2,2,1,1,1,NaN
431,440,2,2,2,2,1,1,NaN
432,386,1,2,2,1,1,1,NaN
433,343,2,2,2,2,1,1,NaN
434,390,1,2,1,1,1,1,NaN
435,373,2,2,2,2,2,1,0.439193608663118
436,433,2,1,1,2,1,1,NaN
437,382,1,2,1,1,1,1,NaN
438,428,2,1,2,2,1,1,NaN
439,335,1,1,2,1,1,1,NaN
440,409,2,2,2,2,1,1,NaN
