PresOrder,TrialNumber,Far_Close,Hallway,Perspective,Phase,Catch_Trial,Response,Response_Time
1,77,1,1,2,1,1,1,NaN
2,43,2,2,2,2,1,1,NaN
3,10,1,1,1,1,1,1,NaN
4,103,1,1,2,1,1,1,NaN
5,16,1,2,1,1,1,1,NaN
6,60,2,1,1,2,1,1,NaN
7,30,1,1,2,1,1,1,NaN
8,66,2,2,2,2,1,1,NaN
9,84,1,2,1,1,1,1,NaN
10,53,2,2,2,2,2,1,0.464415160413409
11,26,1,1,2,1,1,1,NaN
12,55,1,2,1,1,1,1,NaN
13,100,2,1,2,2,1,1,NaN
14,56,2,1,1,2,2,1,0.412461871139385
15,65,1,2,2,1,1,1,NaN
16,88,1,2,2,1,1,1,NaN
17,35,2,1,2,2,1,1,NaN
18,5,2,2,2,2,1,1,NaN
19,23,2,1,2,2,1,1,NaN
20,110,2,2,2,2,1,1,NaN
21,54,2,1,1,2,1,1,NaN
22,4,1,2,1,1,1,1,NaN
23,107,1,1,1,1,1,1,NaN
24,83,2,1,2,2,1,1,NaN
25,97,1,2,1,1,1,1,NaN
26,18,1,1,2,1,1,1,NaN
27,76,2,2,1,2,1,1,NaN
28,38,2,1,2,2,2,1,0.449089867781368
29,64,2,1,2,2,1,1,NaN
30,69,1,1,2,1,2,1,0.404617927082654
31,89,2,2,1,2,1,1,NaN
32,47,2,2,1,2,1,1,NaN
33,78,2,1,2,2,1,1,NaN
34,1,1,1,1,1,1,1,NaN
35,37,2,2,2,2,1,1,NaN
36,74,2,1,1,2,1,1,NaN
37,51,2,2,2,2,1,1,NaN
38,9,2,2,2,2,1,1,NaN
39,99,1,1,2,1,1,1,NaN
40,73,1,1,1,1,1,1,NaN
41,70,1,2,2,1,1,1,NaN
42,80,1,2,1,1,2,1,0.449947337323465
43,31,2,1,1,2,1,1,NaN
44,109,1,2,2,1,1,1,NaN
45,92,1,2,2,1,1,1,NaN
46,34,1,1,2,1,1,1,NaN
47,58,1,1,1,1,1,1,NaN
48,104,2,1,1,2,1,1,NaN
49,46,1,2,2,1,1,1,NaN
50,15,2,1,2,2,1,1,NaN
51,48,1,1,2,1,1,1,NaN
52,50,1,2,1,1,1,1,NaN
53,36,1,2,1,1,1,1,NaN
54,98,2,2,1,2,1,1,NaN
55,95,1,1,2,1,1,1,NaN
56,72,2,1,2,2,2,1,0.572056267561493
57,7,2,1,1,2,1,1,NaN
58,79,1,2,2,1,1,1,NaN
59,63,1,1,1,1,1,1,NaN
60,91,2,1,2,2,1,1,NaN
61,105,1,2,2,1,1,1,NaN
62,93,1,1,2,1,2,1,0.453722544512857
63,25,2,2,1,2,1,1,NaN
64,21,2,2,2,2,1,1,NaN
65,108,2,1,1,2,1,1,NaN
66,86,1,1,2,1,1,1,NaN
67,57,2,2,1,2,1,1,NaN
68,41,1,2,1,1,1,1,NaN
69,20,1,2,2,1,1,1,NaN
70,19,2,1,1,2,1,1,NaN
71,29,2,2,1,2,1,1,NaN
72,33,2,2,1,2,1,1,NaN
73,3,2,1,2,2,1,1,NaN
74,27,2,1,2,2,1,1,NaN
75,71,2,2,2,2,1,1,NaN
76,12,1,2,2,1,1,1,NaN
77,42,2,2,2,2,2,1,0.469037594333713
78,102,2,2,1,2,1,1,NaN
79,22,1,1,1,1,1,1,NaN
80,61,1,2,2,1,1,1,NaN
81,90,1,1,1,1,1,1,NaN
82,17,2,2,2,2,1,1,NaN
83,75,1,2,2,1,1,1,NaN
84,45,2,1,2,2,1,1,NaN
85,11,2,1,2,2,1,1,NaN
86,62,2,2,1,2,1,1,NaN
87,81,2,2,1,2,1,1,NaN
88,6,1,1,2,1,1,1,NaN
89,67,1,1,1,1,1,1,NaN
90,24,1,2,2,1,1,1,NaN
91,2,1,2,1,1,2,1,0.542461569706575
92,68,2,1,1,2,1,1,NaN
93,106,2,2,1,2,1,1,NaN
94,52,1,1,2,1,1,1,NaN
95,40,2,1,2,2,1,1,NaN
96,8,1,2,1,1,1,1,NaN
97,59,1,1,2,1,2,1,0.483467665349963
98,85,2,2,1,2,1,1,NaN
99,87,2,1,2,2,1,1,NaN
100,14,1,1,1,1,1,1,NaN
101,94,2,2,2,2,1,1,NaN
102,28,1,2,2,1,1,1,NaN
103,101,1,2,1,1,1,1,NaN
104,39,1,1,2,1,1,1,NaN
105,13,2,2,2,2,1,1,NaN
106,32,1,2,1,1,1,1,NaN
107,82,1,1,1,1,1,1,NaN
108,44,1,1,2,1,1,1,NaN
109,96,2,1,1,2,1,1,NaN
110,49,2,1,1,2,1,1,NaN
111,198,1,1,1,1,1,1,NaN
112,150,2,2,2,2,1,1,NaN
113,218,2,1,1,2,1,1,NaN
114,193,2,2,2,2,1,1,NaN
115,214,1,2,2,1,1,1,NaN
116,219,1,2,1,1,1,1,NaN
117,173,2,1,1,2,1,1,NaN
118,141,2,2,2,2,1,1,NaN
119,138,2,1,2,2,1,1,NaN
120,132,2,2,1,2,1,1,NaN
121,163,2,2,2,2,1,1,NaN
122,144,1,1,2,1,2,1,0.549620416086327
123,134,2,1,1,2,1,1,NaN
124,128,2,2,1,2,1,1,NaN
125,119,1,2,1,1,2,1,0.483109752296514
126,117,2,1,2,2,1,1,NaN
127,200,1,2,2,1,2,1,0.595145902978402
128,201,1,2,1,1,1,1,NaN
129,159,2,2,2,2,1,1,NaN
130,179,2,2,2,2,1,1,NaN
131,211,2,2,1,2,1,1,NaN
132,177,2,1,2,2,1,1,NaN
133,192,1,2,2,1,1,1,NaN
134,121,1,1,1,1,1,1,NaN
135,196,1,2,1,1,1,1,NaN
136,197,2,2,2,2,1,1,NaN
137,188,2,2,1,2,1,1,NaN
138,152,2,1,1,2,1,1,NaN
139,149,1,2,2,1,1,1,NaN
140,215,2,2,2,2,2,0,NaN
141,170,1,2,2,1,1,1,NaN
142,205,1,2,2,1,1,1,NaN
143,129,1,1,2,1,1,1,NaN
144,116,1,1,2,1,1,1,NaN
145,176,1,1,2,1,1,1,NaN
146,171,2,2,1,2,1,1,NaN
147,143,2,1,1,2,1,1,NaN
148,130,2,1,2,2,1,1,NaN
149,123,1,2,2,1,1,1,NaN
150,135,1,2,1,1,1,1,NaN
151,145,1,2,2,1,1,1,NaN
152,175,2,2,2,2,1,1,NaN
153,206,2,2,1,2,1,1,NaN
154,120,2,2,1,2,1,1,NaN
155,184,2,2,1,2,1,1,NaN
156,157,2,1,2,2,1,1,NaN
157,207,1,1,2,1,1,1,NaN
158,187,1,2,1,1,1,1,NaN
159,154,2,1,2,2,2,1,0.706061782875622
160,139,1,1,2,1,2,1,0.46626501193532
161,194,1,1,1,1,1,1,NaN
162,158,1,2,2,1,1,1,NaN
163,127,1,2,1,1,1,1,NaN
164,165,2,1,1,2,1,1,NaN
165,180,1,1,1,1,1,1,NaN
166,186,2,1,1,2,1,1,NaN
167,203,1,1,2,1,1,1,NaN
168,202,2,2,2,2,1,1,NaN
169,155,2,2,2,2,1,1,NaN
170,118,1,2,2,1,1,1,NaN
171,164,1,1,1,1,1,1,NaN
172,147,1,1,2,1,1,1,NaN
173,212,1,1,1,1,1,1,NaN
174,111,1,1,1,1,1,1,NaN
175,169,2,1,1,2,1,1,NaN
176,199,2,1,2,2,1,1,NaN
177,216,2,2,2,2,1,1,NaN
178,115,2,2,2,2,1,1,NaN
179,168,1,1,2,1,1,1,NaN
180,167,2,2,1,2,1,1,NaN
181,210,2,2,2,2,2,1,0.508729069182664
182,137,1,1,2,1,1,1,NaN
183,183,2,2,1,2,2,1,0.483151308841116
184,131,1,2,1,1,1,1,NaN
185,146,2,2,2,2,1,1,NaN
186,213,2,1,1,2,1,1,NaN
187,172,1,1,1,1,1,1,NaN
188,126,2,1,2,2,1,1,NaN
189,153,1,2,1,1,1,1,NaN
190,136,2,2,1,2,1,1,NaN
191,122,2,1,1,2,1,1,NaN
192,204,2,1,2,2,1,1,NaN
193,142,1,1,2,1,1,1,NaN
194,112,2,1,2,2,2,1,0.90524610400098
195,208,2,1,2,2,1,1,NaN
196,220,2,2,1,2,1,1,NaN
197,189,1,2,1,1,2,1,0.469805805098076
198,160,1,1,1,1,1,1,NaN
199,140,1,2,1,1,1,1,NaN
200,156,1,1,2,1,1,1,NaN
201,182,1,2,2,1,1,1,NaN
202,133,1,1,1,1,1,1,NaN
203,178,1,2,1,1,1,1,NaN
204,217,1,1,1,1,1,1,NaN
205,113,2,1,1,2,1,1,NaN
206,161,2,1,1,2,1,1,NaN
207,148,2,1,1,2,1,1,NaN
208,195,2,1,1,2,1,1,NaN
209,124,2,2,1,2,1,1,NaN
210,125,1,1,1,1,1,1,NaN
211,181,2,1,2,2,1,1,NaN
212,190,1,1,2,1,1,1,NaN
213,174,1,2,2,1,1,1,NaN
214,114,1,2,2,1,1,1,NaN
215,166,1,2,1,1,1,1,NaN
216,162,1,2,1,1,1,1,NaN
217,209,1,2,1,1,1,1,NaN
218,191,2,1,1,2,1,1,NaN
219,151,1,1,2,1,1,1,NaN
220,185,1,1,1,1,1,1,NaN
221,325,1,2,2,1,1,1,NaN
222,268,2,2,1,2,1,1,NaN
223,294,1,1,2,1,1,1,NaN
224,232,1,1,2,1,1,1,NaN
225,237,2,1,2,2,1,1,NaN
226,293,2,2,1,2,1,1,NaN
227,284,1,2,1,1,1,1,NaN
228,263,1,2,2,1,1,1,NaN
229,306,2,2,2,2,1,1,NaN
230,246,2,1,2,2,1,1,NaN
231,230,2,2,1,2,2,1,0.53660326757381
232,276,1,2,1,1,1,1,NaN
233,296,1,2,2,1,1,1,NaN
234,275,2,1,1,2,1,1,NaN
235,259,1,2,1,1,1,1,NaN
236,321,1,2,2,1,1,1,NaN
237,324,2,1,1,2,1,1,NaN
238,314,2,2,1,2,1,1,NaN
239,264,2,2,2,2,1,1,NaN
240,271,2,1,1,2,1,1,NaN
241,256,2,2,1,2,1,1,NaN
242,327,1,1,2,1,1,1,NaN
243,329,1,2,2,1,1,1,NaN
244,307,1,1,1,1,1,1,NaN
245,299,2,1,1,2,1,1,NaN
246,281,2,2,2,2,1,1,NaN
247,238,1,2,2,1,1,1,NaN
248,270,1,1,2,1,2,1,0.421602554966739
249,274,1,1,2,1,1,1,NaN
250,244,2,1,1,2,2,1,0.648287943540709
251,282,1,1,1,1,1,1,NaN
252,252,1,1,1,1,1,1,NaN
253,227,2,1,2,2,1,1,NaN
254,300,1,2,2,1,1,1,NaN
255,279,2,1,1,2,1,1,NaN
256,309,1,2,2,1,1,1,NaN
257,231,2,1,1,2,2,1,0.524441247387585
258,308,2,1,1,2,1,1,NaN
259,301,2,2,1,2,1,1,NaN
260,267,1,2,2,1,1,1,NaN
261,248,1,2,1,1,1,1,NaN
262,316,2,1,1,2,1,1,NaN
263,278,1,1,1,1,1,1,NaN
264,242,1,2,2,1,1,1,NaN
265,266,2,1,1,2,1,1,NaN
266,320,2,1,2,2,1,1,NaN
267,285,2,2,1,2,1,1,NaN
268,297,2,2,1,2,1,1,NaN
269,239,2,2,2,2,1,1,NaN
270,323,1,1,1,1,1,1,NaN
271,303,1,1,1,1,2,1,0.472207012462604
272,288,1,2,2,1,1,1,NaN
273,292,1,2,2,1,1,1,NaN
274,312,2,1,2,2,1,1,NaN
275,254,1,2,1,1,1,1,NaN
276,319,1,1,2,1,1,1,NaN
277,251,2,2,1,2,1,1,NaN
278,280,1,2,2,1,1,1,NaN
279,289,2,2,2,2,1,1,NaN
280,240,1,1,2,1,1,1,NaN
281,260,2,2,1,2,1,1,NaN
282,330,2,2,1,2,1,1,NaN
283,253,2,1,2,2,1,1,NaN
284,225,2,2,1,2,1,1,NaN
285,241,2,1,1,2,1,1,NaN
286,326,2,2,2,2,1,1,NaN
287,272,1,2,1,1,1,1,NaN
288,229,2,2,2,2,1,1,NaN
289,243,2,2,2,2,1,1,NaN
290,318,2,2,1,2,1,1,NaN
291,262,2,1,1,2,1,1,NaN
292,295,2,1,2,2,1,1,NaN
293,287,2,1,1,2,1,1,NaN
294,304,2,1,1,2,1,1,NaN
295,283,2,1,1,2,1,1,NaN
296,322,2,2,2,2,1,1,NaN
297,228,1,2,1,1,1,1,NaN
298,328,2,1,2,2,1,1,NaN
299,233,2,1,1,2,1,1,NaN
300,298,1,1,1,1,1,1,NaN
301,258,2,1,2,2,1,1,NaN
302,305,1,2,2,1,1,1,NaN
303,265,1,1,2,1,1,1,NaN
304,221,1,1,2,1,1,1,NaN
305,257,1,1,2,1,1,1,NaN
306,311,1,1,1,1,1,1,NaN
307,277,2,2,1,2,1,1,NaN
308,250,1,2,2,1,2,1,0.597481263705049
309,235,2,2,2,2,1,1,NaN
310,317,1,2,1,1,1,1,NaN
311,247,2,1,2,2,2,1,0.475831504016242
312,245,1,1,2,1,1,1,NaN
313,222,2,1,2,2,1,1,NaN
314,226,1,1,2,1,1,1,NaN
315,310,2,2,1,2,1,1,NaN
316,234,1,2,1,1,1,1,NaN
317,290,1,1,1,1,1,1,NaN
318,269,1,1,2,1,1,1,NaN
319,249,1,1,2,1,2,0,NaN
320,291,2,1,1,2,1,1,NaN
321,223,1,2,1,1,1,1,NaN
322,302,1,1,2,1,1,1,NaN
323,315,1,1,1,1,1,1,NaN
324,255,2,2,2,2,2,1,0.75236191887052
325,236,1,1,2,1,1,1,NaN
326,313,1,2,1,1,1,1,NaN
327,273,2,2,1,2,1,1,NaN
328,224,1,2,2,1,2,1,0.524216490865001
329,286,1,1,1,1,1,1,NaN
330,261,1,1,1,1,1,1,NaN
331,420,1,1,1,1,1,1,NaN
332,370,1,2,2,1,1,1,NaN
333,365,1,2,1,1,1,1,NaN
334,438,2,1,2,2,1,1,NaN
335,429,2,1,1,2,1,1,NaN
336,353,1,1,2,1,2,1,0.559081553547003
337,393,2,2,2,2,1,1,NaN
338,436,1,1,1,1,1,1,NaN
339,355,1,2,1,1,1,1,NaN
340,415,1,1,2,1,1,1,NaN
341,369,2,1,2,2,1,1,NaN
342,372,1,1,2,1,1,1,NaN
343,419,2,2,1,2,1,1,NaN
344,344,1,1,1,1,1,1,NaN
345,404,1,2,2,1,1,1,NaN
346,400,1,2,2,1,1,1,NaN
347,422,1,2,2,1,1,1,NaN
348,394,1,1,2,1,1,1,NaN
349,367,2,2,2,2,1,1,NaN
350,364,2,1,2,2,1,1,NaN
351,434,1,2,2,1,1,1,NaN
352,384,2,2,2,2,1,1,NaN
353,382,2,1,2,2,1,1,NaN
354,347,2,2,1,2,1,1,NaN
355,424,1,1,2,1,1,1,NaN
356,386,2,1,1,2,1,1,NaN
357,396,1,2,1,1,1,1,NaN
358,383,1,2,1,1,1,1,NaN
359,331,1,1,1,1,1,1,NaN
360,350,1,2,2,1,1,1,NaN
361,398,1,1,1,1,1,1,NaN
362,366,1,2,2,1,2,1,0.560822538631328
363,346,1,2,2,1,1,1,NaN
364,406,1,1,1,1,1,1,NaN
365,403,2,1,2,2,1,1,NaN
366,385,1,1,1,1,1,1,NaN
367,409,2,2,2,2,1,1,NaN
368,335,1,1,1,1,1,1,NaN
369,413,2,2,2,2,2,1,0.622843339730025
370,361,2,2,1,2,1,1,NaN
371,348,1,1,2,1,1,1,NaN
372,421,2,1,1,2,1,1,NaN
373,414,2,2,1,2,1,1,NaN
374,402,1,1,2,1,1,1,NaN
375,334,2,2,1,2,1,1,NaN
376,388,1,2,1,1,2,1,0.457380398363966
377,411,2,1,1,2,1,1,NaN
378,408,1,2,1,1,1,1,NaN
379,376,1,1,2,1,1,1,NaN
380,332,2,1,2,2,1,1,NaN
381,431,2,2,2,2,1,1,NaN
382,418,1,2,1,1,1,1,NaN
383,359,2,1,1,2,1,1,NaN
384,390,1,1,2,1,1,1,NaN
385,373,2,1,1,2,1,1,NaN
386,371,2,2,2,2,1,1,NaN
387,343,2,2,1,2,1,1,NaN
388,340,1,1,1,1,1,1,NaN
389,379,2,2,2,2,2,1,0.494402304222604
390,342,1,2,2,1,1,1,NaN
391,356,2,2,2,2,1,1,NaN
392,360,1,2,1,1,1,1,NaN
393,339,2,1,2,2,2,1,0.425252507220648
394,352,1,1,2,1,1,1,NaN
395,430,1,2,2,1,1,1,NaN
396,377,2,1,1,2,1,1,NaN
397,357,1,1,1,1,2,1,0.806611938844071
398,333,1,2,2,1,1,1,NaN
399,439,1,2,2,1,1,1,NaN
400,381,1,1,1,1,1,1,NaN
401,354,2,1,2,2,1,1,NaN
402,349,2,1,1,2,1,1,NaN
403,336,2,1,2,2,1,1,NaN
404,391,2,1,2,2,1,1,NaN
405,368,1,1,1,1,1,1,NaN
406,374,1,2,1,1,1,1,NaN
407,423,2,2,1,2,1,1,NaN
408,337,1,2,2,1,1,1,NaN
409,435,2,2,1,2,1,1,NaN
410,389,2,2,2,2,1,1,NaN
411,397,2,2,1,2,1,1,NaN
412,345,2,1,2,2,1,1,NaN
413,341,2,1,1,2,1,1,NaN
414,338,2,2,2,2,1,1,NaN
415,433,2,1,1,2,1,1,NaN
416,380,2,2,2,2,1,1,NaN
417,362,1,1,1,1,1,1,NaN
418,437,2,2,1,2,2,1,0.578142252732505
419,358,1,1,1,1,1,1,NaN
420,432,1,1,2,1,1,1,NaN
421,417,2,1,1,2,2,0,NaN
422,405,2,2,1,2,1,1,NaN
423,387,1,2,2,1,1,1,NaN
424,427,2,2,1,2,1,1,NaN
425,428,1,1,1,1,1,1,NaN
426,412,1,2,2,1,1,1,NaN
427,378,1,2,2,1,1,1,NaN
428,410,1,1,2,1,1,1,NaN
429,425,2,1,2,2,1,1,NaN
430,363,1,2,2,1,2,0,NaN
431,426,1,2,2,1,1,1,NaN
432,407,2,1,2,2,1,1,NaN
433,440,2,2,1,2,1,1,NaN
434,392,1,2,2,1,1,1,NaN
435,401,2,2,2,2,1,1,NaN
436,375,2,2,2,2,1,1,NaN
437,399,2,1,2,2,1,1,NaN
438,416,2,1,1,2,1,1,NaN
439,351,2,2,2,2,1,1,NaN
440,395,2,1,2,2,1,1,NaN
