PresOrder,TrialNumber,Far_Close,Hallway,Perspective,Phase,Catch_Trial,Response,Response_Time
1,71,2,2,1,2,1,1,NaN
2,63,1,1,1,1,1,1,NaN
3,9,2,2,2,2,1,1,NaN
4,36,1,2,1,1,1,1,NaN
5,41,2,2,2,2,1,1,NaN
6,72,1,1,2,1,1,1,NaN
7,107,2,1,1,2,1,1,NaN
8,14,2,2,2,2,1,1,NaN
9,26,1,1,2,1,1,1,NaN
10,48,1,2,2,1,1,1,NaN
11,34,1,1,1,1,1,0,0.0646833290356881
12,86,2,1,2,2,1,1,NaN
13,24,2,2,1,2,1,1,NaN
14,83,1,2,2,1,1,1,NaN
15,16,2,1,1,2,1,1,NaN
16,46,1,1,1,1,1,1,NaN
17,22,2,2,2,2,2,0,NaN
18,95,1,2,1,1,1,1,NaN
19,20,2,1,2,2,1,1,NaN
20,30,1,1,2,1,1,1,NaN
21,85,1,1,2,1,1,1,NaN
22,58,1,1,2,1,1,1,NaN
23,31,2,1,2,2,1,1,NaN
24,93,1,1,2,1,1,1,NaN
25,5,2,2,2,2,1,1,NaN
26,77,1,1,2,1,1,1,NaN
27,53,2,2,1,2,1,1,NaN
28,39,2,1,1,2,1,1,NaN
29,51,2,1,1,2,1,1,NaN
30,94,2,1,1,2,1,1,NaN
31,17,1,2,2,1,1,1,NaN
32,101,1,1,2,1,1,1,NaN
33,62,1,1,1,1,2,1,0.556074171474393
34,76,2,2,1,2,1,1,NaN
35,64,1,2,1,1,2,0,NaN
36,47,2,1,1,2,1,1,NaN
37,8,1,2,2,1,1,1,NaN
38,105,1,1,1,1,2,1,0.808924258435582
39,91,1,2,1,1,1,1,NaN
40,13,1,2,1,1,1,1,NaN
41,89,1,1,2,1,1,1,NaN
42,3,1,2,1,1,1,1,NaN
43,54,1,1,1,1,1,1,NaN
44,74,2,1,1,2,1,1,NaN
45,59,2,1,1,2,1,1,NaN
46,50,1,1,2,1,1,1,NaN
47,1,1,1,2,1,1,1,NaN
48,81,1,1,2,1,1,1,NaN
49,10,2,1,2,2,2,0,NaN
50,27,2,1,2,2,1,1,NaN
51,67,2,2,2,2,1,1,NaN
52,65,2,1,1,2,1,1,NaN
53,109,2,2,1,2,1,1,NaN
54,21,1,2,2,1,1,1,NaN
55,79,1,2,2,1,1,1,NaN
56,66,1,2,1,1,1,1,NaN
57,90,2,1,2,2,1,1,NaN
58,84,2,2,2,2,1,1,NaN
59,82,2,1,2,2,1,1,NaN
60,68,1,1,1,1,1,1,NaN
61,45,2,2,2,2,1,1,NaN
62,25,1,2,1,1,2,1,0.567010662273788
63,33,2,2,1,2,1,1,NaN
64,60,1,2,1,1,1,1,NaN
65,104,2,2,2,2,1,1,NaN
66,69,2,1,2,2,1,1,NaN
67,7,2,1,2,2,1,1,NaN
68,75,1,2,1,1,1,1,NaN
69,2,2,1,1,2,1,1,NaN
70,61,2,2,1,2,1,1,NaN
71,12,2,1,1,2,1,1,NaN
72,43,2,1,2,2,1,1,NaN
73,103,1,2,2,1,1,1,NaN
74,99,1,2,2,1,1,1,NaN
75,40,1,2,1,1,1,1,NaN
76,28,1,2,1,1,1,1,NaN
77,97,1,1,1,1,1,1,NaN
78,29,2,2,1,2,1,1,NaN
79,78,2,1,1,2,1,1,NaN
80,100,2,2,1,2,1,1,NaN
81,108,1,2,1,1,1,1,NaN
82,92,2,2,2,2,1,1,NaN
83,4,2,1,1,2,2,1,0.809249397351778
84,38,1,1,2,1,1,1,NaN
85,42,1,1,2,1,1,1,NaN
86,70,1,2,1,1,1,1,NaN
87,35,2,1,1,2,1,1,NaN
88,98,2,1,2,2,1,1,NaN
89,44,1,2,1,1,1,1,NaN
90,55,2,1,2,2,1,1,NaN
91,73,2,1,1,2,2,1,0.538757524507673
92,56,1,2,1,1,1,1,NaN
93,15,1,1,1,1,1,1,NaN
94,102,2,1,1,2,1,1,NaN
95,6,1,1,2,1,1,1,NaN
96,18,2,2,2,2,1,1,NaN
97,96,2,2,2,2,1,1,NaN
98,37,2,2,2,2,1,1,NaN
99,11,1,1,2,1,1,1,NaN
100,57,2,2,1,2,1,1,NaN
101,88,2,2,1,2,1,1,NaN
102,52,1,2,1,1,1,1,NaN
103,80,2,2,1,2,1,1,NaN
104,23,2,2,2,2,2,1,0.608879833514948
105,19,1,1,1,1,1,1,NaN
106,87,1,2,2,1,1,1,NaN
107,110,1,1,1,1,2,1,0.572377356635116
108,32,1,2,1,1,1,1,NaN
109,106,1,1,1,1,1,1,NaN
110,49,2,2,2,2,1,1,NaN
111,140,1,2,2,1,1,1,NaN
112,171,2,2,1,2,1,1,NaN
113,203,1,1,1,1,1,0,0.329199201287338
114,145,1,2,1,1,1,1,NaN
115,188,2,2,1,2,1,1,NaN
116,182,2,1,2,2,1,1,NaN
117,130,1,1,1,1,1,1,NaN
118,124,1,1,2,1,2,1,0.446491236029033
119,128,2,2,1,2,2,1,0.510190368689109
120,205,1,2,2,1,1,1,NaN
121,174,1,2,1,1,2,1,0.633614388757451
122,131,2,1,1,2,1,1,NaN
123,208,1,1,1,1,1,1,NaN
124,127,1,2,2,1,1,1,NaN
125,114,2,2,1,2,1,1,NaN
126,200,2,1,1,2,1,1,NaN
127,154,2,2,1,2,1,1,NaN
128,113,1,2,2,1,1,1,NaN
129,149,1,2,1,1,1,1,NaN
130,121,2,1,2,2,1,1,NaN
131,197,1,2,2,1,1,1,NaN
132,186,2,1,1,2,1,1,NaN
133,167,1,1,1,1,1,1,NaN
134,201,1,2,2,1,1,1,NaN
135,214,1,2,1,1,1,1,NaN
136,153,1,2,1,1,1,1,NaN
137,194,2,2,1,2,1,1,NaN
138,175,1,2,1,1,1,1,NaN
139,216,1,1,2,1,1,1,NaN
140,204,2,1,1,2,1,1,NaN
141,195,1,1,2,1,1,1,NaN
142,151,1,1,2,1,1,1,NaN
143,111,1,1,2,1,1,1,NaN
144,137,2,2,1,2,1,1,NaN
145,115,1,1,1,1,1,1,NaN
146,193,1,2,2,1,1,1,NaN
147,177,1,1,1,1,1,1,NaN
148,135,2,1,1,2,1,1,NaN
149,160,2,1,2,2,1,1,NaN
150,139,2,1,2,2,1,1,NaN
151,189,2,2,1,2,2,1,0.465251839258599
152,166,2,2,1,2,1,1,NaN
153,181,1,1,2,1,1,1,NaN
154,165,1,2,1,1,1,1,NaN
155,213,2,1,2,2,1,1,NaN
156,123,2,2,2,2,1,1,NaN
157,155,1,1,1,1,1,1,NaN
158,212,1,1,2,1,1,1,NaN
159,129,2,2,1,2,1,1,NaN
160,116,2,1,1,2,1,1,NaN
161,178,2,1,2,2,1,1,NaN
162,144,2,1,1,2,2,1,0.511618814275607
163,206,2,1,2,2,2,1,0.560116019866655
164,168,2,1,2,2,1,1,NaN
165,192,2,1,2,2,1,1,NaN
166,183,1,2,2,1,1,1,NaN
167,126,2,1,1,2,1,1,NaN
168,118,1,2,2,1,1,1,NaN
169,215,2,2,1,2,1,1,NaN
170,136,1,2,1,1,1,1,NaN
171,207,2,2,2,2,1,1,NaN
172,211,2,2,1,2,1,1,NaN
173,196,2,1,2,2,1,0,0.0162194860340605
174,202,2,2,2,2,1,1,NaN
175,217,2,1,1,2,1,1,NaN
176,152,2,1,1,2,1,1,NaN
177,185,1,1,2,1,1,1,NaN
178,220,2,2,2,2,2,1,0.469615022062499
179,184,2,2,1,2,1,1,NaN
180,163,1,1,2,1,1,1,NaN
181,173,2,1,1,2,1,1,NaN
182,210,1,2,2,1,1,1,NaN
183,141,2,2,1,2,1,1,NaN
184,170,1,2,2,1,2,1,0.599602692536791
185,176,2,2,2,2,1,1,NaN
186,156,2,1,2,2,1,1,NaN
187,164,2,1,2,2,1,1,NaN
188,198,2,2,2,2,1,1,NaN
189,119,2,2,2,2,1,1,NaN
190,209,2,1,2,2,1,1,NaN
191,159,1,1,2,1,1,1,NaN
192,187,1,2,1,1,1,1,NaN
193,219,2,2,1,2,1,1,NaN
194,133,2,2,1,2,1,1,NaN
195,147,1,1,1,1,1,1,NaN
196,158,2,2,1,2,1,1,NaN
197,125,1,1,1,1,1,1,NaN
198,162,2,2,1,2,1,1,NaN
199,142,1,1,2,1,1,1,NaN
200,190,1,1,1,1,2,1,0.788734331655178
201,134,1,1,2,1,1,1,NaN
202,148,2,1,2,2,1,1,NaN
203,161,1,2,1,1,1,1,NaN
204,179,1,2,2,1,1,1,NaN
205,157,1,2,1,1,1,1,NaN
206,138,1,1,2,1,1,1,NaN
207,199,1,1,1,1,1,1,NaN
208,112,2,1,2,2,1,1,NaN
209,132,1,2,1,1,1,1,NaN
210,150,2,2,2,2,1,1,NaN
211,180,2,2,1,2,1,1,NaN
212,117,1,2,2,1,2,0,NaN
213,120,1,1,1,1,1,1,NaN
214,169,1,2,1,1,1,1,NaN
215,146,2,2,1,2,1,1,NaN
216,143,2,1,2,2,1,1,NaN
217,122,1,2,1,1,1,1,NaN
218,172,1,1,1,1,1,1,NaN
219,218,1,2,2,1,1,1,NaN
220,191,1,1,2,1,1,1,NaN
221,222,2,1,1,2,1,1,NaN
222,260,2,2,1,2,1,1,NaN
223,255,1,2,2,1,1,1,NaN
224,271,1,1,1,1,1,1,NaN
225,240,2,1,1,2,2,1,0.658508147935208
226,309,1,2,2,1,1,1,NaN
227,321,1,2,1,1,1,1,NaN
228,263,1,2,2,1,1,1,NaN
229,291,1,2,2,1,1,1,NaN
230,313,1,2,1,1,1,1,NaN
231,241,1,1,2,1,2,1,0.587309749104861
232,326,2,2,1,2,1,1,NaN
233,329,1,2,2,1,1,1,NaN
234,281,1,1,1,1,1,1,NaN
235,221,1,1,1,1,1,1,NaN
236,324,2,1,1,2,1,1,NaN
237,277,1,1,1,1,1,1,NaN
238,322,2,2,1,2,1,1,NaN
239,270,1,2,2,1,2,1,0.566792342173358
240,267,2,1,2,2,1,1,NaN
241,268,1,2,2,1,1,1,NaN
242,306,2,2,2,2,1,1,NaN
243,284,2,2,1,2,1,1,NaN
244,229,1,1,1,1,1,1,NaN
245,223,1,2,1,1,1,1,NaN
246,226,2,1,2,2,1,1,NaN
247,295,1,1,2,1,1,1,NaN
248,302,2,2,2,2,1,1,NaN
249,303,1,1,1,1,1,1,NaN
250,300,2,1,1,2,1,1,NaN
251,278,2,1,2,2,1,1,NaN
252,275,2,2,2,2,2,1,0.593600938366762
253,224,2,2,2,2,1,1,NaN
254,283,1,2,1,1,1,1,NaN
255,289,1,1,1,1,1,1,NaN
256,239,1,2,1,1,1,1,NaN
257,308,2,1,1,2,1,1,NaN
258,280,2,2,2,2,1,1,NaN
259,304,2,1,1,2,1,1,NaN
260,253,2,1,1,2,1,1,NaN
261,257,1,1,2,1,1,1,NaN
262,316,2,1,1,2,1,1,NaN
263,256,2,2,2,2,1,1,NaN
264,269,2,2,1,2,1,1,NaN
265,319,1,1,1,1,1,1,NaN
266,296,2,1,2,2,1,1,NaN
267,236,2,2,2,2,1,1,NaN
268,320,2,1,2,2,1,1,NaN
269,305,1,2,2,1,1,1,NaN
270,259,1,2,1,1,1,1,NaN
271,234,2,1,1,2,1,1,NaN
272,244,2,1,1,2,1,1,NaN
273,246,2,2,1,2,1,1,NaN
274,279,1,2,1,1,1,1,NaN
275,264,1,1,1,1,2,1,0.695831520096363
276,225,1,1,2,1,1,1,NaN
277,330,2,2,2,2,1,1,NaN
278,249,2,1,2,2,1,1,NaN
279,254,2,1,1,2,2,1,0.502766314671135
280,227,1,2,1,1,1,1,NaN
281,251,2,2,2,2,1,1,NaN
282,248,2,1,2,2,2,1,0.466520202949141
283,231,1,2,2,1,1,1,NaN
284,282,2,1,1,2,1,1,NaN
285,265,2,2,2,2,1,1,NaN
286,325,1,2,2,1,1,1,NaN
287,323,1,1,1,1,1,1,NaN
288,327,1,1,1,1,1,1,NaN
289,286,2,1,1,2,1,1,NaN
290,273,2,1,2,2,1,1,NaN
291,230,2,1,2,2,1,1,NaN
292,298,2,2,2,2,1,1,NaN
293,311,1,1,2,1,1,1,NaN
294,307,1,1,1,1,1,1,NaN
295,252,1,1,2,1,1,1,NaN
296,261,1,1,1,1,1,1,NaN
297,238,2,1,2,2,1,1,NaN
298,297,1,2,1,1,1,1,NaN
299,301,1,2,1,1,1,1,NaN
300,232,2,2,1,2,1,1,NaN
301,247,1,1,1,1,1,1,NaN
302,314,2,2,2,2,1,1,NaN
303,228,2,2,1,2,1,1,NaN
304,266,1,1,2,1,1,1,NaN
305,242,2,2,1,2,1,1,NaN
306,328,2,1,1,2,1,1,NaN
307,285,1,1,2,1,1,1,NaN
308,235,1,2,2,1,1,1,NaN
309,272,1,1,2,1,2,1,0.586779459532409
310,274,1,2,1,1,1,1,NaN
311,294,1,2,2,1,2,0,NaN
312,258,2,1,1,2,1,1,NaN
313,276,2,2,1,2,1,1,NaN
314,262,2,1,1,2,1,1,NaN
315,293,2,2,2,2,1,1,NaN
316,315,1,1,2,1,1,1,NaN
317,318,2,2,1,2,1,1,NaN
318,317,1,2,1,1,1,1,NaN
319,250,1,2,2,1,1,1,NaN
320,299,1,1,2,1,1,1,NaN
321,237,1,1,2,1,1,1,NaN
322,290,2,1,2,2,1,1,NaN
323,310,2,2,1,2,1,1,NaN
324,233,1,1,1,1,1,1,NaN
325,245,1,2,2,1,1,1,NaN
326,287,1,2,2,1,1,1,NaN
327,292,2,2,1,2,2,1,0.598071525293562
328,288,2,2,2,2,1,1,NaN
329,312,2,1,2,2,1,1,NaN
330,243,1,1,1,1,1,1,NaN
331,337,1,2,1,1,1,1,NaN
332,385,1,2,2,1,1,1,NaN
333,340,2,1,1,2,1,1,NaN
334,422,2,2,1,2,1,1,NaN
335,395,1,2,1,1,2,1,0.595181271530237
336,383,1,1,2,1,1,1,NaN
337,417,1,2,1,1,1,1,NaN
338,370,2,2,1,2,1,1,NaN
339,386,2,2,1,2,1,1,NaN
340,363,2,1,2,2,1,1,NaN
341,418,2,2,1,2,1,1,NaN
342,424,1,1,2,1,1,1,NaN
343,405,2,2,1,2,1,1,NaN
344,339,1,1,1,1,1,1,NaN
345,349,2,1,2,2,1,1,NaN
346,427,2,2,1,2,1,1,NaN
347,371,1,1,2,1,1,1,NaN
348,416,2,1,1,2,1,0,0.0711439651313412
349,351,2,2,1,2,1,1,NaN
350,344,2,1,2,2,1,1,NaN
351,332,2,1,2,2,1,1,NaN
352,415,1,1,2,1,1,1,NaN
353,377,1,2,1,1,1,1,NaN
354,411,1,1,1,1,1,1,NaN
355,388,2,1,2,2,1,1,NaN
356,393,1,2,2,1,1,1,NaN
357,347,2,2,2,2,1,1,NaN
358,400,1,2,1,1,2,1,0.433680001850007
359,358,2,1,1,2,1,1,NaN
360,409,2,2,1,2,1,1,NaN
361,384,2,1,1,2,1,1,NaN
362,435,2,2,1,2,1,1,NaN
363,333,1,2,1,1,1,1,NaN
364,345,1,2,1,1,1,1,NaN
365,420,2,1,2,2,1,1,NaN
366,387,1,1,2,1,1,1,NaN
367,346,1,2,2,1,2,1,0.668295677995047
368,398,1,1,1,1,2,1,0.726759810722797
369,412,2,1,1,2,1,1,NaN
370,361,2,2,2,2,1,1,NaN
371,401,2,2,2,2,1,1,NaN
372,396,1,1,2,1,1,1,NaN
373,413,1,2,1,1,1,1,NaN
374,423,2,2,1,2,2,1,0.139384507057912
375,375,1,1,1,1,1,1,NaN
376,374,2,2,2,2,1,1,NaN
377,438,2,1,1,2,1,1,NaN
378,357,1,1,2,1,1,1,NaN
379,336,2,1,1,2,1,1,NaN
380,394,2,2,1,2,1,1,NaN
381,404,1,2,2,1,1,1,NaN
382,391,1,1,1,1,1,1,NaN
383,348,1,1,2,1,1,1,NaN
384,364,1,2,2,1,1,1,NaN
385,331,1,1,1,1,1,1,NaN
386,389,1,2,2,1,1,1,NaN
387,338,2,2,2,2,1,1,NaN
388,378,2,2,1,2,1,1,NaN
389,369,1,2,2,1,1,1,NaN
390,397,2,1,2,2,1,1,NaN
391,373,1,2,2,1,1,1,NaN
392,403,2,1,2,2,1,1,NaN
393,342,2,2,1,2,1,1,NaN
394,359,1,2,1,1,1,1,NaN
395,433,2,1,2,2,1,1,NaN
396,432,1,1,1,1,1,1,NaN
397,390,2,2,2,2,1,1,NaN
398,354,2,1,2,2,1,1,NaN
399,425,2,1,1,2,1,1,NaN
400,367,1,1,1,1,1,1,NaN
401,381,1,2,1,1,1,1,NaN
402,379,1,1,2,1,1,1,NaN
403,341,1,2,1,1,1,1,NaN
404,365,2,1,1,2,2,1,0.617321153842568
405,356,2,2,1,2,1,1,NaN
406,439,1,2,2,1,1,1,NaN
407,402,1,1,2,1,1,1,NaN
408,360,2,2,2,2,2,1,0.766960852512057
409,434,1,2,2,1,1,1,NaN
410,408,1,2,2,1,1,1,NaN
411,368,2,1,1,2,1,1,NaN
412,406,1,1,2,1,1,1,NaN
413,382,2,2,2,2,1,1,NaN
414,410,2,2,1,2,2,1,0.6057434574941
415,372,2,1,1,2,1,1,NaN
416,419,1,1,2,1,1,1,NaN
417,392,2,1,2,2,1,1,NaN
418,399,1,2,1,1,1,1,NaN
419,362,1,1,2,1,1,1,NaN
420,430,1,2,1,1,1,1,NaN
421,429,2,1,1,2,1,1,NaN
422,376,2,1,2,2,1,1,NaN
423,437,1,1,1,1,2,0,NaN
424,343,1,1,2,1,1,1,NaN
425,414,2,2,2,2,1,1,NaN
426,426,1,2,2,1,1,1,NaN
427,407,2,1,1,2,1,1,NaN
428,421,1,2,2,1,1,1,NaN
429,355,1,2,2,1,1,1,NaN
430,366,2,2,1,2,1,1,NaN
431,431,2,2,2,2,1,1,NaN
432,380,2,1,1,2,1,1,NaN
433,440,2,2,1,2,1,1,NaN
434,334,2,2,1,2,1,1,NaN
435,353,2,1,1,2,2,1,0.510176028628848
436,350,1,2,2,1,1,1,NaN
437,436,1,1,1,1,1,0,0.529945411195513
438,428,1,1,1,1,1,1,NaN
439,335,1,1,1,1,1,1,NaN
440,352,1,1,2,1,1,1,NaN
