PresOrder,TrialNumber,Far_Close,Hallway,Perspective,Phase,Catch_Trial,Response,Response_Time
1,100,1,2,1,1,1,1,NaN
2,89,1,2,1,1,2,1,0.44619158032765
3,7,1,2,2,1,1,1,NaN
4,9,1,1,1,1,1,1,NaN
5,51,2,1,2,2,1,1,NaN
6,73,2,2,1,2,1,1,NaN
7,54,1,1,1,1,1,1,NaN
8,62,1,1,2,1,1,1,NaN
9,8,2,2,2,2,1,1,NaN
10,69,2,2,2,2,1,1,NaN
11,103,2,1,1,2,1,1,NaN
12,95,2,1,2,2,1,1,NaN
13,35,1,2,1,1,1,1,NaN
14,3,1,2,1,1,1,1,NaN
15,26,1,2,1,1,1,1,NaN
16,107,1,1,2,1,1,1,NaN
17,90,1,1,1,1,1,1,NaN
18,45,2,2,2,2,1,1,NaN
19,106,2,2,1,2,1,1,NaN
20,70,1,1,1,1,1,1,NaN
21,37,2,2,1,2,1,1,NaN
22,97,2,2,2,2,1,1,NaN
23,36,1,1,1,1,2,1,0.514766810036235
24,4,2,2,2,2,1,1,NaN
25,109,1,2,2,1,1,1,NaN
26,96,1,2,2,1,1,1,NaN
27,59,2,1,2,2,1,1,NaN
28,80,1,1,2,1,1,1,NaN
29,34,2,1,2,2,1,1,NaN
30,83,2,2,2,2,1,1,NaN
31,16,2,1,1,2,1,1,NaN
32,28,1,1,2,1,1,1,NaN
33,48,1,2,1,1,1,1,NaN
34,68,1,2,2,1,1,1,NaN
35,46,1,1,1,1,1,1,NaN
36,66,1,1,2,1,1,1,NaN
37,67,2,1,1,2,1,1,NaN
38,18,2,2,2,2,1,1,NaN
39,82,1,2,2,1,1,1,NaN
40,40,1,2,2,1,1,1,NaN
41,102,1,1,1,1,1,1,NaN
42,44,1,2,2,1,1,1,NaN
43,81,2,1,2,2,1,1,NaN
44,74,1,1,2,1,1,1,NaN
45,108,2,1,2,2,1,1,NaN
46,33,2,1,2,2,2,1,0.572090426134309
47,6,2,1,2,2,1,1,NaN
48,1,1,1,2,1,1,1,NaN
49,38,1,1,2,1,1,1,NaN
50,10,2,1,2,2,1,1,NaN
51,14,2,2,2,2,1,1,NaN
52,49,2,2,2,2,1,1,NaN
53,52,1,2,1,1,1,1,NaN
54,93,2,2,2,2,1,1,NaN
55,86,1,1,1,1,2,1,0.513098105044264
56,64,1,2,1,1,1,1,NaN
57,101,2,2,2,2,1,1,NaN
58,22,1,2,2,1,1,1,NaN
59,65,2,2,1,2,1,1,NaN
60,84,1,1,2,1,1,1,NaN
61,17,1,2,1,1,1,1,NaN
62,91,2,1,1,2,1,1,NaN
63,5,1,1,1,1,1,1,NaN
64,98,1,1,1,1,1,1,NaN
65,58,1,1,2,1,1,1,NaN
66,13,2,2,2,2,2,1,0.624108543670445
67,110,2,2,2,2,1,1,NaN
68,25,2,1,1,2,1,1,NaN
69,72,1,2,2,1,1,1,NaN
70,60,1,2,2,1,1,1,NaN
71,94,1,1,2,1,1,1,NaN
72,29,2,1,1,2,1,1,NaN
73,27,2,2,2,2,1,1,NaN
74,85,2,1,2,2,1,1,NaN
75,78,1,1,2,1,2,1,0.558469204606808
76,75,2,1,1,2,1,1,NaN
77,21,2,1,2,2,1,1,NaN
78,76,1,2,1,1,1,1,NaN
79,56,1,2,2,1,1,1,NaN
80,23,2,2,1,2,1,1,NaN
81,41,2,2,1,2,1,1,NaN
82,77,2,2,2,2,2,1,0.600601810758235
83,20,2,1,1,2,2,0,NaN
84,50,1,1,2,1,1,1,NaN
85,104,1,2,2,1,2,1,0.641856751832165
86,71,2,1,1,2,1,1,NaN
87,87,1,2,2,1,1,1,NaN
88,24,1,1,1,1,1,1,NaN
89,19,1,1,2,1,1,1,NaN
90,30,1,2,1,1,1,1,NaN
91,105,1,2,1,1,1,1,NaN
92,63,2,1,2,2,1,1,NaN
93,88,2,2,2,2,1,1,NaN
94,43,2,1,2,2,1,1,NaN
95,15,1,1,2,1,1,1,NaN
96,12,1,2,2,1,1,1,NaN
97,32,1,1,2,1,1,1,NaN
98,79,2,2,1,2,1,1,NaN
99,31,2,2,1,2,1,1,NaN
100,2,2,1,1,2,1,1,NaN
101,39,2,1,2,2,1,1,NaN
102,11,2,1,2,2,2,1,0.470645044324556
103,99,2,1,1,2,1,1,NaN
104,55,2,1,2,2,1,1,NaN
105,53,2,2,2,2,1,1,NaN
106,57,2,2,2,2,1,1,NaN
107,92,1,2,1,1,1,1,NaN
108,61,2,2,2,2,1,1,NaN
109,47,2,1,1,2,1,1,NaN
110,42,1,1,1,1,1,1,NaN
111,183,2,2,1,2,1,1,NaN
112,117,1,2,2,1,1,1,NaN
113,168,2,1,1,2,1,1,NaN
114,157,2,2,1,2,1,1,NaN
115,220,2,2,1,2,1,1,NaN
116,197,2,1,2,2,1,1,NaN
117,120,2,1,1,2,1,1,NaN
118,211,2,2,2,2,2,1,0.666918055228962
119,202,2,1,1,2,1,1,NaN
120,124,2,1,1,2,1,1,NaN
121,151,1,2,1,1,1,1,NaN
122,154,1,2,1,1,2,1,0.713680717795796
123,147,1,2,1,1,1,1,NaN
124,114,2,2,2,2,1,1,NaN
125,204,2,2,2,2,1,1,NaN
126,134,1,2,2,1,1,1,NaN
127,155,2,1,2,2,1,1,NaN
128,215,2,1,2,2,2,1,0.650208178411049
129,206,2,1,1,2,1,1,NaN
130,174,1,2,1,1,1,1,NaN
131,126,2,2,2,2,1,1,NaN
132,207,1,2,1,1,1,1,NaN
133,199,2,2,2,2,2,1,0.501595980826096
134,167,1,1,1,1,1,1,NaN
135,116,2,1,2,2,1,1,NaN
136,196,1,1,1,1,1,1,NaN
137,175,2,2,2,2,1,1,NaN
138,164,2,1,1,2,1,1,NaN
139,193,2,1,1,2,1,1,NaN
140,153,1,1,2,1,1,1,NaN
141,146,2,1,1,2,1,1,NaN
142,190,1,2,2,1,1,1,NaN
143,140,1,1,1,1,1,1,NaN
144,113,1,2,2,1,1,1,NaN
145,156,1,2,1,1,1,1,NaN
146,216,2,2,2,2,1,1,NaN
147,131,2,2,1,2,1,1,NaN
148,210,1,1,1,1,1,1,NaN
149,142,1,2,1,1,1,1,NaN
150,182,1,2,2,1,1,1,NaN
151,118,2,2,2,2,1,1,NaN
152,138,1,2,1,1,1,1,NaN
153,209,2,2,1,2,1,1,NaN
154,144,1,1,1,1,1,1,NaN
155,218,2,1,1,2,1,1,NaN
156,185,2,1,2,2,1,1,NaN
157,165,1,2,2,1,1,1,NaN
158,135,2,2,2,2,1,1,NaN
159,122,2,2,1,2,1,1,NaN
160,191,2,2,2,2,1,1,NaN
161,189,2,1,1,2,1,1,NaN
162,195,2,2,2,2,1,1,NaN
163,170,2,2,1,2,1,1,NaN
164,158,1,1,1,1,1,1,NaN
165,159,2,1,2,2,1,1,NaN
166,178,1,2,2,1,1,1,NaN
167,132,1,1,1,1,1,1,NaN
168,188,1,1,2,1,1,1,NaN
169,148,2,2,2,2,1,1,NaN
170,123,1,1,2,1,1,1,NaN
171,184,1,1,2,1,1,1,NaN
172,169,1,2,2,1,1,1,NaN
173,179,2,2,2,2,1,1,NaN
174,160,1,2,1,1,1,1,NaN
175,177,2,1,2,2,1,1,NaN
176,212,2,1,2,2,1,1,NaN
177,139,2,2,2,2,1,1,NaN
178,181,2,1,1,2,1,1,NaN
179,162,1,1,1,1,1,1,NaN
180,217,1,1,1,1,1,1,NaN
181,171,1,1,2,1,1,1,NaN
182,176,1,1,2,1,1,1,NaN
183,112,2,1,1,2,1,1,NaN
184,180,1,1,1,1,1,1,NaN
185,201,1,1,2,1,1,1,NaN
186,192,1,1,1,1,1,1,NaN
187,200,2,2,1,2,1,1,NaN
188,213,1,1,1,1,2,1,0.511801361479229
189,150,2,1,2,2,1,1,NaN
190,219,1,2,1,1,1,1,NaN
191,173,2,1,1,2,1,1,NaN
192,161,2,2,2,2,1,1,NaN
193,111,1,1,2,1,1,1,NaN
194,149,1,1,1,1,1,1,NaN
195,136,1,1,1,1,1,1,NaN
196,166,2,2,1,2,1,1,NaN
197,187,2,2,2,2,1,1,NaN
198,127,1,1,2,1,1,1,NaN
199,198,1,2,2,1,1,1,NaN
200,203,1,2,2,1,1,1,NaN
201,130,1,2,1,1,1,1,NaN
202,172,1,1,1,1,2,1,0.528101232037443
203,133,2,1,2,2,1,1,NaN
204,129,2,1,1,2,1,1,NaN
205,194,1,2,2,1,1,1,NaN
206,186,1,2,2,1,1,1,NaN
207,141,2,1,2,2,1,1,NaN
208,128,1,2,1,1,2,1,0.537929968824756
209,125,1,2,2,1,1,1,NaN
210,145,2,1,1,2,2,1,0.701475642086734
211,205,1,1,1,1,1,1,NaN
212,152,2,2,1,2,1,1,NaN
213,121,1,2,2,1,1,1,NaN
214,115,1,1,1,1,1,1,NaN
215,143,2,2,1,2,1,1,NaN
216,208,2,2,1,2,2,1,0.545196532300906
217,163,1,2,1,1,2,1,0.541123101085759
218,137,2,1,1,2,1,1,NaN
219,119,1,1,1,1,1,1,NaN
220,214,1,2,1,1,1,1,NaN
221,269,2,1,2,2,1,1,NaN
222,272,2,2,1,2,1,1,NaN
223,230,1,1,1,1,1,1,NaN
224,249,1,2,2,1,1,1,NaN
225,310,2,2,2,2,1,1,NaN
226,232,1,2,2,1,1,1,NaN
227,292,2,1,2,2,1,1,NaN
228,307,1,1,1,1,1,1,NaN
229,295,1,1,1,1,1,1,NaN
230,267,1,1,1,1,2,1,0.551271414487928
231,228,1,2,1,1,1,1,NaN
232,242,1,1,2,1,1,1,NaN
233,222,2,1,1,2,1,1,NaN
234,287,1,1,2,1,1,1,NaN
235,320,2,1,2,2,1,1,NaN
236,325,1,2,2,1,1,1,NaN
237,253,1,2,2,1,1,1,NaN
238,262,2,1,2,2,1,1,NaN
239,239,2,1,2,2,1,1,NaN
240,284,2,1,2,2,1,1,NaN
241,276,2,1,2,2,2,1,0.661261958881369
242,328,2,1,2,2,1,1,NaN
243,326,2,2,2,2,1,1,NaN
244,263,1,2,2,1,1,1,NaN
245,285,1,2,1,1,1,1,NaN
246,260,1,2,2,1,2,1,0.760057371611765
247,321,1,2,2,1,1,1,NaN
248,243,2,1,1,2,1,1,NaN
249,290,2,2,2,2,1,1,NaN
250,317,1,2,1,1,1,1,NaN
251,300,2,1,1,2,1,1,NaN
252,299,1,1,2,1,1,1,NaN
253,240,1,2,2,1,1,1,NaN
254,309,1,2,2,1,1,1,NaN
255,257,2,1,1,2,1,1,NaN
256,279,1,1,1,1,1,1,NaN
257,273,1,1,2,1,1,1,NaN
258,237,2,2,1,2,1,1,NaN
259,306,2,2,1,2,1,1,NaN
260,221,1,1,1,1,1,1,NaN
261,298,2,2,1,2,1,1,NaN
262,289,1,2,1,1,1,1,NaN
263,236,1,2,2,1,1,1,NaN
264,254,2,2,1,2,1,1,NaN
265,275,1,2,2,1,2,1,0.6967800314942
266,286,2,2,1,2,1,1,NaN
267,248,2,1,1,2,1,1,NaN
268,227,2,1,1,2,1,1,NaN
269,293,1,2,1,1,1,1,NaN
270,316,2,1,1,2,1,1,NaN
271,277,1,2,1,1,1,1,NaN
272,229,2,2,1,2,1,1,NaN
273,297,1,2,1,1,1,1,NaN
274,288,2,1,1,2,1,1,NaN
275,270,1,2,2,1,1,1,NaN
276,318,2,2,2,2,1,1,NaN
277,311,1,1,1,1,1,1,NaN
278,255,1,1,1,1,2,0,NaN
279,271,2,1,2,2,2,1,0.554986638946502
280,231,2,1,2,2,1,1,NaN
281,245,1,2,1,1,1,1,NaN
282,233,2,2,2,2,1,1,NaN
283,264,2,2,2,2,1,1,NaN
284,268,2,1,2,2,2,1,0.543289608111081
285,296,2,1,2,2,1,1,NaN
286,259,2,2,1,2,1,1,NaN
287,238,1,1,1,1,1,1,NaN
288,226,1,1,1,1,1,1,NaN
289,280,2,1,1,2,1,1,NaN
290,330,2,2,2,2,1,1,NaN
291,225,2,2,1,2,1,0,1.18486951060549
292,251,1,1,2,1,1,1,NaN
293,250,2,2,2,2,1,1,NaN
294,291,1,1,1,1,1,1,NaN
295,256,1,1,1,1,1,1,NaN
296,322,2,2,2,2,1,1,NaN
297,304,2,1,1,2,1,1,NaN
298,282,2,2,2,2,1,1,NaN
299,244,2,2,2,2,2,1,0.990799295645047
300,323,1,1,1,1,1,1,NaN
301,301,1,2,1,1,1,1,NaN
302,278,2,2,2,2,1,1,NaN
303,241,2,2,1,2,1,1,NaN
304,314,2,2,1,2,1,1,NaN
305,315,1,1,1,1,1,1,NaN
306,327,1,1,1,1,1,1,NaN
307,329,1,2,2,1,1,1,NaN
308,283,1,1,2,1,1,1,NaN
309,312,2,1,1,2,1,1,NaN
310,223,2,2,2,2,2,1,0.668641778906022
311,252,2,1,1,2,1,1,NaN
312,324,2,1,2,2,1,1,NaN
313,302,2,2,1,2,1,1,NaN
314,281,1,2,1,1,1,1,NaN
315,313,1,2,1,1,1,1,NaN
316,308,2,1,2,2,1,1,NaN
317,246,2,2,1,2,1,1,NaN
318,234,1,1,2,1,1,1,NaN
319,258,1,2,2,1,1,1,NaN
320,265,1,1,2,1,2,1,0.643055164131511
321,274,2,1,2,2,1,1,NaN
322,303,1,1,1,1,1,1,NaN
323,266,1,1,2,1,1,1,NaN
324,305,1,2,1,1,1,1,NaN
325,247,1,1,2,1,1,1,NaN
326,294,2,2,1,2,1,1,NaN
327,224,1,2,1,1,1,1,NaN
328,319,1,1,1,1,1,1,NaN
329,235,2,1,1,2,1,1,NaN
330,261,1,1,2,1,1,1,NaN
331,416,1,2,2,1,2,1,1.0768731008684
332,437,1,1,2,1,1,1,NaN
333,378,1,2,2,1,1,1,NaN
334,386,1,2,2,1,1,1,NaN
335,365,2,2,1,2,1,1,NaN
336,419,1,1,2,1,1,1,NaN
337,371,1,1,1,1,2,1,0.62618403574379
338,428,1,1,2,1,1,1,NaN
339,333,1,2,1,1,1,1,NaN
340,407,1,2,1,1,1,1,NaN
341,400,1,1,1,1,1,1,NaN
342,351,1,2,1,1,1,1,NaN
343,375,2,2,1,2,1,1,NaN
344,376,1,1,2,1,1,1,NaN
345,395,2,2,1,2,1,1,NaN
346,433,2,1,2,2,1,1,NaN
347,373,2,2,2,2,2,1,0.664594101119292
348,397,2,1,2,2,1,1,NaN
349,350,2,1,2,2,1,1,NaN
350,383,2,2,2,2,1,1,NaN
351,405,2,1,2,2,1,1,NaN
352,341,1,1,1,1,1,1,NaN
353,345,1,1,2,1,1,1,NaN
354,440,2,2,2,2,1,1,NaN
355,380,1,1,1,1,1,1,NaN
356,364,1,2,2,1,1,1,NaN
357,359,2,2,1,2,2,1,0.62728850656822
358,424,1,1,2,1,1,1,NaN
359,337,1,2,1,1,2,0,NaN
360,432,1,1,1,1,1,1,NaN
361,356,2,2,1,2,1,1,NaN
362,417,1,2,2,1,1,1,NaN
363,343,1,2,2,1,1,1,NaN
364,403,2,2,1,2,1,1,NaN
365,431,2,2,1,2,1,1,NaN
366,420,2,1,1,2,1,1,NaN
367,438,2,1,1,2,1,1,NaN
368,346,2,1,2,2,1,1,NaN
369,418,2,2,2,2,1,1,NaN
370,331,1,1,2,1,1,1,NaN
371,354,2,1,2,2,1,1,NaN
372,409,1,1,2,1,1,1,NaN
373,357,1,1,1,1,1,1,NaN
374,387,2,2,1,2,1,1,NaN
375,353,1,1,1,1,1,1,NaN
376,388,1,1,1,1,1,1,NaN
377,344,2,2,2,2,1,1,NaN
378,429,2,1,1,2,1,1,NaN
379,436,2,2,1,2,1,1,NaN
380,434,2,1,2,2,2,1,0.572740407505989
381,392,1,1,2,1,1,1,NaN
382,379,2,2,1,2,1,1,NaN
383,411,1,2,2,1,1,1,NaN
384,348,2,2,2,2,1,1,NaN
385,360,1,2,1,1,1,1,NaN
386,377,2,1,1,2,1,1,NaN
387,422,1,1,1,1,2,1,0.58750824182971
388,369,2,2,2,2,1,1,NaN
389,363,2,1,2,2,1,1,NaN
390,398,1,2,1,1,1,1,NaN
391,423,2,2,2,2,1,1,NaN
392,384,1,1,2,1,1,1,NaN
393,390,1,2,2,1,1,1,NaN
394,370,1,1,2,1,1,1,NaN
395,358,2,1,2,2,1,1,NaN
396,352,2,2,1,2,1,1,NaN
397,339,1,2,1,1,1,1,NaN
398,382,1,2,2,1,1,1,NaN
399,362,1,1,1,1,1,1,NaN
400,425,2,1,2,2,1,1,NaN
401,355,1,2,1,1,1,1,NaN
402,439,1,2,2,1,1,1,NaN
403,374,1,2,1,1,1,1,NaN
404,391,2,2,2,2,1,1,NaN
405,335,2,1,1,2,2,1,0.760294420198989
406,342,2,1,1,2,1,1,NaN
407,338,2,1,1,2,1,1,NaN
408,401,2,1,2,2,1,1,NaN
409,332,2,1,2,2,1,1,NaN
410,427,2,2,2,2,1,1,NaN
411,410,2,1,2,2,1,1,NaN
412,402,1,2,2,1,1,1,NaN
413,385,2,1,1,2,1,1,NaN
414,421,1,2,2,1,1,1,NaN
415,404,1,1,1,1,1,1,NaN
416,396,1,1,2,1,1,1,NaN
417,361,2,2,2,2,1,1,NaN
418,430,1,2,1,1,1,1,NaN
419,340,2,2,1,2,1,1,NaN
420,399,2,2,2,2,1,1,NaN
421,368,1,2,2,1,1,1,NaN
422,415,1,2,2,1,2,1,0.594606530074088
423,414,2,1,1,2,1,1,NaN
424,336,1,1,2,1,1,1,NaN
425,406,2,2,2,2,2,0,NaN
426,334,2,2,2,2,1,1,NaN
427,435,1,2,2,1,1,1,NaN
428,394,1,2,2,1,1,1,NaN
429,413,1,1,2,1,1,1,NaN
430,372,2,1,1,2,1,1,NaN
431,426,1,2,1,1,1,1,NaN
432,412,2,2,1,2,1,1,NaN
433,393,2,1,1,2,1,1,NaN
434,367,2,1,2,2,1,1,NaN
435,366,1,1,1,1,1,1,NaN
436,381,2,1,2,2,1,1,NaN
437,408,2,2,2,2,1,1,NaN
438,349,1,1,1,1,1,1,NaN
439,347,1,2,2,1,1,1,NaN
440,389,2,1,1,2,1,1,NaN
