PresOrder,TrialNumber,Far_Close,Hallway,Perspective,Phase,Catch_Trial,Response,Response_Time
1,71,1,1,1,1,1,1,NaN
2,100,2,1,1,2,1,1,NaN
3,73,1,2,1,1,1,1,NaN
4,40,2,2,2,2,1,1,NaN
5,50,1,1,2,1,1,1,NaN
6,110,2,2,1,2,1,1,NaN
7,16,1,2,1,1,1,1,NaN
8,31,1,1,2,1,1,1,NaN
9,54,1,2,1,1,2,1,0.531287047987462
10,86,2,1,2,2,2,1,0.352918814371151
11,39,1,2,2,1,1,1,NaN
12,48,1,2,1,1,1,1,NaN
13,66,2,2,2,2,1,1,NaN
14,59,1,1,2,1,1,1,NaN
15,77,1,2,2,1,1,1,NaN
16,23,2,1,1,2,1,1,NaN
17,78,2,2,2,2,1,1,NaN
18,15,2,1,2,2,1,1,NaN
19,94,2,1,2,2,2,1,0.418930700162491
20,6,2,1,1,2,1,1,NaN
21,37,2,1,1,2,2,1,0.346933191221069
22,69,1,2,1,1,1,1,NaN
23,106,2,2,2,2,1,1,NaN
24,85,1,2,2,1,1,1,NaN
25,12,1,2,2,1,1,1,NaN
26,60,2,1,2,2,1,1,NaN
27,34,2,2,1,2,1,1,NaN
28,97,2,2,2,2,1,1,NaN
29,13,2,2,2,2,1,1,NaN
30,45,1,1,2,1,1,1,NaN
31,82,2,2,1,2,1,1,NaN
32,30,2,2,1,2,1,1,NaN
33,57,1,2,2,1,1,1,NaN
34,90,2,2,1,2,2,1,0.563534435405018
35,7,1,1,2,1,2,1,0.352431547830747
36,56,2,1,2,2,1,1,NaN
37,96,1,2,2,1,1,1,NaN
38,65,1,2,1,1,1,1,NaN
39,36,2,1,1,2,1,1,NaN
40,47,1,1,1,1,2,1,0.449581960427167
41,58,2,2,2,2,1,1,NaN
42,42,2,1,2,2,1,1,NaN
43,1,1,1,1,1,1,1,NaN
44,63,1,1,1,1,1,1,NaN
45,107,1,1,2,1,1,1,NaN
46,27,1,1,1,1,1,1,NaN
47,70,2,2,1,2,1,1,NaN
48,99,2,2,2,2,2,1,0.398020673563224
49,53,2,2,1,2,1,1,NaN
50,8,1,2,1,1,1,1,NaN
51,93,1,1,1,1,1,1,NaN
52,10,1,1,1,1,1,1,NaN
53,83,1,1,1,1,1,1,NaN
54,105,1,2,2,1,1,1,NaN
55,21,2,2,1,2,1,1,NaN
56,4,2,2,2,2,1,1,NaN
57,98,1,1,1,1,1,1,NaN
58,79,1,1,1,1,1,1,NaN
59,102,2,2,2,2,1,1,NaN
60,81,1,2,1,1,1,1,NaN
61,25,2,2,2,2,1,1,NaN
62,14,1,1,2,1,1,1,NaN
63,33,1,2,2,1,1,1,NaN
64,18,1,1,2,1,1,1,NaN
65,38,1,1,2,1,2,1,0.388294365178808
66,2,2,1,2,2,1,1,NaN
67,46,2,1,2,2,1,1,NaN
68,9,2,2,2,2,1,1,NaN
69,19,2,1,1,2,1,1,NaN
70,17,2,2,2,2,1,1,NaN
71,5,1,1,1,1,1,1,NaN
72,84,2,1,2,2,1,1,NaN
73,28,2,1,2,2,1,1,NaN
74,62,2,2,2,2,1,1,NaN
75,68,2,1,2,2,1,1,NaN
76,109,1,2,2,1,1,1,NaN
77,101,1,2,1,1,1,1,NaN
78,91,1,2,2,1,1,1,NaN
79,32,2,1,1,2,1,1,NaN
80,89,2,1,1,2,1,1,NaN
81,20,1,2,2,1,1,1,NaN
82,88,1,1,1,1,1,1,NaN
83,76,2,1,2,2,1,1,NaN
84,22,1,1,1,1,1,1,NaN
85,51,2,1,2,2,1,1,NaN
86,74,2,2,1,2,1,1,NaN
87,64,2,1,2,2,1,1,NaN
88,29,1,2,2,1,1,1,NaN
89,44,2,2,2,2,1,1,NaN
90,95,2,1,2,2,1,1,NaN
91,80,2,1,1,2,1,1,NaN
92,49,2,2,1,2,1,1,NaN
93,11,2,1,2,2,1,1,NaN
94,41,1,1,1,1,1,1,NaN
95,55,1,1,1,1,1,1,NaN
96,108,2,1,1,2,1,1,NaN
97,52,1,2,1,1,1,1,NaN
98,61,1,2,2,1,1,1,NaN
99,75,1,1,1,1,1,1,NaN
100,87,2,2,2,2,1,1,NaN
101,103,1,1,2,1,1,1,NaN
102,43,1,2,1,1,1,1,NaN
103,3,1,2,2,1,1,1,NaN
104,104,2,1,1,2,1,1,NaN
105,72,2,1,1,2,1,1,NaN
106,92,2,2,2,2,1,1,NaN
107,24,1,2,1,1,1,1,NaN
108,26,1,2,2,1,2,1,0.468065019208552
109,35,1,1,1,1,1,1,NaN
110,67,1,1,2,1,1,1,NaN
111,167,2,2,2,2,1,1,NaN
112,215,2,2,1,2,1,1,NaN
113,121,2,1,1,2,1,1,NaN
114,175,2,2,1,2,1,1,NaN
115,200,1,2,1,1,1,1,NaN
116,132,1,1,1,1,1,1,NaN
117,130,1,2,2,1,1,1,NaN
118,155,1,1,2,1,1,1,NaN
119,113,1,2,2,1,1,1,NaN
120,165,2,1,1,2,1,1,NaN
121,135,2,2,1,2,1,1,NaN
122,162,2,2,2,2,1,1,NaN
123,209,1,2,2,1,1,1,NaN
124,180,1,1,1,1,1,1,NaN
125,207,1,1,1,1,1,1,NaN
126,154,2,2,2,2,1,1,NaN
127,170,1,2,1,1,1,1,NaN
128,206,2,2,1,2,1,1,NaN
129,213,2,1,1,2,1,1,NaN
130,183,1,2,1,1,1,1,NaN
131,189,1,1,1,1,1,1,NaN
132,125,2,1,2,2,1,1,NaN
133,150,2,2,2,2,1,1,NaN
134,178,1,2,2,1,1,1,NaN
135,212,1,2,1,1,2,1,0.579832842700853
136,198,1,1,1,1,1,1,NaN
137,210,2,2,1,2,1,1,NaN
138,119,2,2,1,2,1,1,NaN
139,187,1,2,1,1,1,1,NaN
140,115,2,2,1,2,2,1,0.447160553007961
141,188,2,2,2,2,1,1,NaN
142,194,1,1,2,1,1,1,NaN
143,216,2,2,2,2,2,1,0.413552331108804
144,185,1,1,1,1,1,1,NaN
145,182,1,1,1,1,2,1,0.331084590934552
146,166,1,2,1,1,1,1,NaN
147,129,2,1,1,2,1,1,NaN
148,217,1,1,2,1,1,1,NaN
149,192,2,2,1,2,1,1,NaN
150,153,1,2,1,1,1,1,NaN
151,147,1,1,2,1,1,1,NaN
152,174,1,2,1,1,1,1,NaN
153,186,2,1,1,2,1,1,NaN
154,193,1,2,1,1,2,1,0.461316450790946
155,152,2,1,2,2,1,1,NaN
156,203,1,1,2,1,1,1,NaN
157,138,2,1,1,2,1,1,NaN
158,134,1,2,1,1,1,1,NaN
159,205,1,2,1,1,1,1,NaN
160,208,2,1,2,2,1,1,NaN
161,118,1,2,1,1,1,1,NaN
162,159,1,1,2,1,1,1,NaN
163,116,1,1,1,1,1,1,NaN
164,191,1,2,2,1,1,1,NaN
165,151,1,1,2,1,1,1,NaN
166,157,1,2,2,1,1,1,NaN
167,158,2,2,2,2,1,1,NaN
168,111,1,1,2,1,1,1,NaN
169,126,1,2,2,1,1,1,NaN
170,122,1,2,2,1,1,1,NaN
171,136,2,2,2,2,2,1,0.512781454957803
172,195,2,1,1,2,1,1,NaN
173,143,1,1,2,1,1,1,NaN
174,149,1,2,2,1,1,1,NaN
175,128,1,1,1,1,1,1,NaN
176,184,2,2,2,2,1,1,NaN
177,144,2,1,2,2,1,1,NaN
178,142,2,2,1,2,1,1,NaN
179,139,1,2,2,1,1,1,NaN
180,172,1,1,1,1,1,1,NaN
181,197,2,2,1,2,1,1,NaN
182,117,2,1,1,2,1,1,NaN
183,146,2,2,1,2,1,1,NaN
184,204,2,1,1,2,1,1,NaN
185,169,2,1,2,2,1,1,NaN
186,201,2,2,2,2,1,1,NaN
187,127,2,2,2,2,1,1,NaN
188,190,2,1,1,2,1,1,NaN
189,181,2,1,2,2,1,1,NaN
190,137,1,1,1,1,1,1,NaN
191,120,1,1,1,1,1,1,NaN
192,196,1,2,1,1,1,1,NaN
193,160,2,1,2,2,1,1,NaN
194,124,1,1,1,1,1,1,NaN
195,133,2,1,1,2,1,1,NaN
196,219,1,2,1,1,1,1,NaN
197,176,1,1,2,1,1,1,NaN
198,156,2,1,1,2,1,1,NaN
199,218,2,1,2,2,1,1,NaN
200,112,2,1,1,2,1,1,NaN
201,161,1,2,2,1,1,1,NaN
202,114,2,2,2,2,1,1,NaN
203,179,2,2,1,2,1,1,NaN
204,141,2,1,1,2,2,1,0.38051683030335
205,214,1,2,2,1,1,0,0.876454666213249
206,202,1,2,1,1,2,1,0.481984161057881
207,171,2,2,1,2,1,1,NaN
208,131,2,2,2,2,1,1,NaN
209,140,2,1,1,2,2,1,0.444188958745144
210,163,1,1,2,1,2,1,0.376305267072894
211,123,2,2,2,2,1,1,NaN
212,173,2,1,2,2,1,1,NaN
213,164,1,1,2,1,1,1,NaN
214,168,1,1,1,1,1,1,NaN
215,199,2,1,2,2,1,1,NaN
216,220,2,2,1,2,1,1,NaN
217,145,1,2,2,1,1,1,NaN
218,177,2,1,1,2,1,1,NaN
219,211,1,1,2,1,1,1,NaN
220,148,2,1,1,2,1,1,NaN
221,284,1,2,1,1,2,1,0.376753318168085
222,246,1,2,2,1,1,1,NaN
223,304,1,2,1,1,1,1,NaN
224,229,2,2,2,2,1,1,NaN
225,256,2,2,1,2,1,1,NaN
226,324,2,1,1,2,1,1,NaN
227,285,2,1,2,2,1,1,NaN
228,255,1,2,2,1,1,1,NaN
229,262,1,1,1,1,1,1,NaN
230,289,1,2,2,1,2,1,0.437364008006625
231,275,1,1,2,1,1,1,NaN
232,326,2,2,2,2,1,1,NaN
233,242,2,2,2,2,1,1,NaN
234,301,2,2,1,2,1,1,NaN
235,238,2,2,1,2,1,1,NaN
236,253,2,2,1,2,2,1,0.432570066148401
237,323,1,1,1,1,1,1,NaN
238,314,2,2,1,2,1,1,NaN
239,293,2,2,2,2,1,1,NaN
240,302,1,1,2,1,1,1,NaN
241,300,1,2,2,1,1,1,NaN
242,243,1,1,1,1,1,1,NaN
243,230,1,1,1,1,1,1,NaN
244,325,1,2,1,1,1,1,NaN
245,267,2,1,1,2,1,1,NaN
246,286,1,2,2,1,1,1,NaN
247,320,2,1,1,2,1,1,NaN
248,231,2,1,2,2,1,1,NaN
249,309,1,2,1,1,1,1,NaN
250,270,1,1,1,1,1,1,NaN
251,316,2,1,2,2,1,1,NaN
252,233,2,2,2,2,1,1,NaN
253,318,2,2,1,2,1,1,NaN
254,269,2,2,2,2,1,1,NaN
255,297,2,2,2,2,1,1,NaN
256,298,1,1,2,1,1,1,NaN
257,272,1,2,2,1,1,1,NaN
258,319,1,1,1,1,1,1,NaN
259,235,2,1,1,2,1,1,NaN
260,278,2,2,1,2,1,1,NaN
261,292,1,2,1,1,1,1,NaN
262,263,2,1,1,2,1,1,NaN
263,241,1,2,2,1,1,1,NaN
264,264,1,2,1,1,1,1,NaN
265,227,2,1,2,2,1,1,NaN
266,261,2,2,2,2,1,1,NaN
267,317,1,2,2,1,1,1,NaN
268,310,2,2,1,2,1,1,NaN
269,287,2,1,1,2,2,1,0.720259255063866
270,234,1,1,2,1,1,1,NaN
271,259,2,1,1,2,1,1,NaN
272,221,1,1,1,1,1,1,NaN
273,274,2,2,1,2,1,1,NaN
274,252,1,1,2,1,1,1,NaN
275,244,1,1,1,1,2,1,0.361223123884884
276,236,1,2,2,1,1,1,NaN
277,266,1,1,1,1,1,1,NaN
278,280,2,1,1,2,1,1,NaN
279,291,2,1,1,2,1,1,NaN
280,276,2,1,2,2,1,1,NaN
281,315,1,1,1,1,1,1,NaN
282,296,1,2,1,1,1,1,NaN
283,228,1,2,2,1,1,1,NaN
284,308,1,1,1,1,2,1,0.380175012094696
285,305,2,2,1,2,1,1,NaN
286,295,2,1,2,2,1,1,NaN
287,247,2,2,2,2,1,1,NaN
288,282,2,2,2,2,1,1,NaN
289,265,2,2,2,2,1,1,NaN
290,322,2,2,1,2,1,1,NaN
291,321,1,2,1,1,1,1,NaN
292,279,1,1,1,1,1,1,NaN
293,313,1,2,1,1,1,1,NaN
294,258,1,1,1,1,1,1,NaN
295,299,2,1,1,2,1,1,NaN
296,224,2,1,2,2,2,1,0.401096744796632
297,290,1,1,1,1,1,1,NaN
298,250,1,2,1,1,1,1,NaN
299,294,1,1,1,1,1,1,NaN
300,245,2,1,2,2,1,1,NaN
301,260,1,2,2,1,1,1,NaN
302,271,2,1,2,2,1,1,NaN
303,303,2,1,1,2,1,1,NaN
304,226,1,1,2,1,1,1,NaN
305,306,1,1,1,1,1,1,NaN
306,330,2,2,2,2,1,1,NaN
307,249,2,1,1,2,1,1,NaN
308,240,2,1,1,2,1,1,NaN
309,273,2,1,2,2,2,1,0.463213424793139
310,307,2,1,1,2,1,1,NaN
311,327,1,1,1,1,1,1,NaN
312,283,1,1,1,1,1,1,NaN
313,239,1,1,2,1,1,1,NaN
314,329,1,2,2,1,1,1,NaN
315,222,2,1,1,2,1,1,NaN
316,312,2,1,2,2,1,1,NaN
317,237,2,2,2,2,2,1,0.464817453565956
318,311,1,1,1,1,1,1,NaN
319,257,1,1,1,1,2,1,0.374242944365506
320,225,2,2,1,2,1,1,NaN
321,254,2,1,1,2,1,1,NaN
322,268,1,2,1,1,1,1,NaN
323,232,1,2,2,1,1,1,NaN
324,223,1,2,1,1,1,1,NaN
325,248,1,1,2,1,1,1,NaN
326,288,2,2,2,2,1,1,NaN
327,328,2,1,1,2,1,1,NaN
328,277,1,2,1,1,1,1,NaN
329,281,1,2,1,1,1,1,NaN
330,251,2,2,2,2,1,1,NaN
331,391,1,1,2,1,1,1,NaN
332,342,2,2,1,2,1,1,NaN
333,385,1,2,2,1,1,1,NaN
334,332,2,1,2,2,1,1,NaN
335,427,1,1,2,1,1,1,NaN
336,438,2,1,1,2,1,1,NaN
337,418,2,2,1,2,1,1,NaN
338,405,2,2,2,2,1,1,NaN
339,408,1,2,1,1,1,1,NaN
340,440,2,2,2,2,1,1,NaN
341,403,2,1,1,2,2,1,0.497948651764091
342,414,2,2,1,2,1,1,NaN
343,356,2,1,2,2,1,1,NaN
344,386,2,2,1,2,1,1,NaN
345,397,2,1,1,2,1,1,NaN
346,430,2,2,1,2,1,1,NaN
347,337,1,2,2,1,1,1,NaN
348,417,1,2,1,1,1,1,NaN
349,334,2,2,2,2,1,1,NaN
350,370,2,1,1,2,1,1,NaN
351,423,1,1,1,1,1,1,NaN
352,404,1,2,1,1,1,1,NaN
353,378,2,1,1,2,1,1,NaN
354,439,1,2,1,1,1,1,NaN
355,362,2,1,2,2,1,1,NaN
356,384,2,2,2,2,2,1,0.514913721630364
357,422,2,2,2,2,1,1,NaN
358,375,1,2,1,1,1,1,NaN
359,363,1,2,2,1,1,1,NaN
360,331,1,1,1,1,1,1,NaN
361,411,1,1,1,1,1,1,NaN
362,361,1,2,2,1,2,1,0.536121083248872
363,410,1,1,1,1,2,1,0.454363903529156
364,377,1,1,1,1,1,1,NaN
365,360,1,1,1,1,1,1,NaN
366,341,1,2,1,1,1,1,NaN
367,395,2,2,2,2,1,1,NaN
368,426,2,2,2,2,1,1,NaN
369,354,2,2,1,2,1,1,NaN
370,388,2,1,1,2,1,1,NaN
371,424,2,1,1,2,1,1,NaN
372,434,1,2,1,1,1,1,NaN
373,366,2,1,1,2,1,1,NaN
374,428,2,1,2,2,1,1,NaN
375,353,1,2,1,1,1,1,NaN
376,390,2,2,2,2,1,1,NaN
377,346,2,2,1,2,1,1,NaN
378,371,1,2,1,1,1,1,NaN
379,365,1,1,1,1,1,1,NaN
380,372,2,2,1,2,1,1,NaN
381,344,2,1,2,2,1,1,NaN
382,436,2,2,2,2,2,0,NaN
383,416,2,1,2,2,1,1,NaN
384,396,1,1,1,1,1,1,NaN
385,380,2,2,2,2,1,1,NaN
386,340,2,1,2,2,1,1,NaN
387,415,1,1,1,1,1,1,NaN
388,393,1,2,2,1,2,1,0.515444300752279
389,338,2,2,2,2,1,1,NaN
390,402,1,2,2,1,2,1,0.524166518145648
391,343,1,1,2,1,1,1,NaN
392,437,1,1,1,1,1,1,NaN
393,387,1,1,2,1,1,1,NaN
394,373,1,1,2,1,1,1,NaN
395,409,2,2,2,2,1,1,NaN
396,339,1,1,2,1,1,1,NaN
397,398,1,2,2,1,1,1,NaN
398,399,2,2,2,2,1,1,NaN
399,333,1,2,1,1,1,1,NaN
400,351,1,1,2,1,1,1,NaN
401,376,2,2,2,2,1,1,NaN
402,401,2,1,1,2,1,1,NaN
403,335,1,1,1,1,1,1,NaN
404,433,2,1,2,2,1,1,NaN
405,431,2,1,2,2,2,1,0.484662224784188
406,413,1,2,2,1,1,1,NaN
407,379,1,2,1,1,1,1,NaN
408,389,1,2,2,1,1,1,NaN
409,412,2,1,1,2,1,1,NaN
410,355,1,1,1,1,1,1,NaN
411,425,1,2,1,1,1,1,NaN
412,374,2,1,2,2,1,1,NaN
413,359,2,2,2,2,1,1,NaN
414,421,1,2,1,1,1,1,NaN
415,364,2,2,1,2,1,1,NaN
416,392,2,1,2,2,1,1,NaN
417,382,2,1,1,2,1,1,NaN
418,345,1,2,1,1,1,1,NaN
419,394,1,2,1,1,1,1,NaN
420,349,1,2,1,1,1,1,NaN
421,429,1,2,2,1,1,1,NaN
422,381,1,1,1,1,1,1,NaN
423,420,2,1,1,2,1,1,NaN
424,419,1,1,1,1,1,1,NaN
425,400,1,1,2,1,1,1,NaN
426,368,2,2,1,2,1,1,NaN
427,348,2,1,2,2,1,1,NaN
428,407,2,1,1,2,1,1,NaN
429,435,2,2,1,2,1,1,NaN
430,383,2,2,2,2,2,1,0.453363617021751
431,350,2,2,1,2,1,1,NaN
432,369,1,1,1,1,1,1,NaN
433,406,1,1,2,1,1,1,NaN
434,367,1,2,2,1,1,1,NaN
435,432,1,1,2,1,1,1,NaN
436,347,1,1,1,1,1,1,NaN
437,336,2,1,1,2,1,1,NaN
438,358,1,1,2,1,2,1,0.492893956461558
439,352,2,1,2,2,1,1,NaN
440,357,1,2,1,1,1,1,NaN
