PresOrder,TrialNumber,Far_Close,Hallway,Perspective,Phase,Catch_Trial,Response,Response_Time
1,102,2,2,1,2,1,1,NaN
2,7,1,2,1,1,1,1,NaN
3,56,1,1,1,1,1,1,NaN
4,4,2,2,2,2,1,1,NaN
5,75,1,2,2,1,1,1,NaN
6,95,1,2,2,1,2,1,0.83781973297846
7,3,1,2,1,1,1,1,NaN
8,30,1,2,1,1,1,1,NaN
9,13,2,2,1,2,1,1,NaN
10,110,2,2,2,2,1,1,NaN
11,96,2,1,1,2,1,1,NaN
12,100,2,1,1,2,1,1,NaN
13,16,1,2,1,1,1,1,NaN
14,60,2,2,1,2,2,1,0.674956709493927
15,17,2,2,1,2,1,1,NaN
16,58,1,2,2,1,1,1,NaN
17,94,1,1,2,1,1,1,NaN
18,29,2,1,2,2,1,1,NaN
19,44,1,2,2,1,1,1,NaN
20,43,2,1,2,2,1,1,NaN
21,42,1,1,1,1,1,1,NaN
22,15,2,1,1,2,1,1,NaN
23,8,2,2,1,2,1,1,NaN
24,101,1,2,2,1,1,1,NaN
25,46,1,1,2,1,1,1,NaN
26,61,1,1,1,1,1,1,NaN
27,77,1,1,2,1,1,1,NaN
28,80,1,1,1,1,2,1,0.77150017076201
29,25,2,1,1,2,1,1,NaN
30,64,2,2,2,2,1,1,NaN
31,9,1,1,2,1,1,1,NaN
32,54,2,1,1,2,2,1,0.64725166379867
33,19,1,1,1,1,1,1,NaN
34,91,2,1,2,2,1,1,NaN
35,49,1,2,2,1,1,1,NaN
36,108,2,1,1,2,1,1,NaN
37,105,1,2,2,1,1,1,NaN
38,27,2,2,2,2,1,1,NaN
39,39,2,1,1,2,2,1,0.624672120327887
40,66,2,1,2,2,1,1,NaN
41,67,1,2,2,1,1,1,NaN
42,12,1,2,2,1,2,1,0.750444757451987
43,47,2,1,2,2,1,1,NaN
44,87,2,1,1,2,1,1,NaN
45,74,2,1,2,2,1,1,NaN
46,21,2,1,2,2,1,1,NaN
47,1,1,1,2,1,1,1,NaN
48,6,2,1,1,2,1,1,NaN
49,34,2,1,2,2,1,1,NaN
50,20,2,2,2,2,2,1,0.779763777383778
51,65,1,1,1,1,1,1,NaN
52,90,1,1,1,1,1,1,NaN
53,106,2,2,1,2,1,1,NaN
54,37,1,1,1,1,1,1,NaN
55,83,2,1,1,2,1,1,NaN
56,51,1,1,1,1,1,1,NaN
57,32,2,1,1,2,2,1,0.643827346020771
58,55,2,2,1,2,1,1,NaN
59,69,1,1,1,1,1,1,NaN
60,28,1,1,1,1,1,1,NaN
61,85,2,2,2,2,1,1,NaN
62,76,2,2,2,2,1,1,NaN
63,88,1,2,1,1,1,1,NaN
64,18,1,1,1,1,2,1,0.729841491049228
65,103,1,1,2,1,1,1,NaN
66,36,2,2,2,2,1,1,NaN
67,23,2,2,2,2,1,1,NaN
68,45,2,2,2,2,1,1,NaN
69,59,2,2,1,2,1,1,NaN
70,78,2,1,2,2,1,1,NaN
71,98,2,2,1,2,1,1,NaN
72,82,1,1,1,1,1,1,NaN
73,68,2,2,2,2,1,1,NaN
74,72,2,2,2,2,1,1,NaN
75,71,1,2,1,1,1,1,NaN
76,24,1,1,2,1,1,1,NaN
77,53,1,2,2,1,1,1,NaN
78,57,2,1,1,2,1,1,NaN
79,48,1,1,1,1,2,1,0.884116649804128
80,38,2,1,1,2,1,1,NaN
81,31,2,2,2,2,1,1,NaN
82,99,1,1,1,1,1,1,NaN
83,73,1,1,2,1,1,1,NaN
84,104,2,1,1,2,1,1,NaN
85,97,1,2,2,1,1,1,NaN
86,92,1,2,2,1,1,1,NaN
87,33,1,1,1,1,1,1,NaN
88,89,2,2,1,2,1,1,NaN
89,10,2,1,2,2,1,1,NaN
90,50,2,2,1,2,1,1,NaN
91,2,2,1,1,2,1,1,NaN
92,40,1,2,2,1,1,1,NaN
93,63,1,2,1,1,1,1,NaN
94,109,1,2,1,1,1,1,NaN
95,22,1,2,1,1,1,1,NaN
96,70,2,1,2,2,1,1,NaN
97,35,1,2,2,1,1,1,NaN
98,52,2,1,2,2,1,1,NaN
99,62,2,1,2,2,1,1,NaN
100,107,1,1,2,1,1,1,NaN
101,14,1,1,2,1,1,1,NaN
102,41,2,2,2,2,1,1,NaN
103,79,1,2,1,1,1,1,NaN
104,5,1,1,1,1,1,1,NaN
105,81,2,2,2,2,1,1,NaN
106,93,2,2,1,2,1,1,NaN
107,84,1,2,2,1,1,1,NaN
108,86,1,1,2,1,1,1,NaN
109,11,1,2,1,1,1,1,NaN
110,26,1,2,2,1,1,1,NaN
111,146,1,1,1,1,1,1,NaN
112,161,1,1,1,1,1,1,NaN
113,192,1,2,2,1,1,1,NaN
114,195,2,1,1,2,1,1,NaN
115,140,2,2,1,2,1,1,NaN
116,115,1,1,2,1,1,1,NaN
117,177,1,1,1,1,1,1,NaN
118,202,2,2,1,2,1,1,NaN
119,120,2,1,2,2,1,1,NaN
120,203,1,1,1,1,1,1,NaN
121,159,1,2,1,1,1,1,NaN
122,182,2,2,1,2,2,1,0.949609470912037
123,201,1,2,2,1,1,1,NaN
124,153,1,2,1,1,1,1,NaN
125,197,2,2,2,2,1,0,0.794609706497795
126,167,1,2,2,1,1,1,NaN
127,124,2,1,2,2,1,1,NaN
128,215,1,1,2,1,1,1,NaN
129,200,2,1,2,2,1,1,NaN
130,180,2,2,1,2,1,1,NaN
131,169,1,1,2,1,1,1,NaN
132,131,2,2,1,2,1,1,NaN
133,179,1,2,1,1,1,1,NaN
134,205,1,2,2,1,1,1,NaN
135,132,1,1,2,1,2,1,0.775234992013793
136,206,2,2,1,2,1,1,NaN
137,168,2,2,2,2,1,1,NaN
138,126,2,2,2,2,1,1,NaN
139,152,2,1,2,2,1,1,NaN
140,183,2,1,2,2,1,1,NaN
141,194,1,1,2,1,1,1,NaN
142,220,1,2,1,1,2,1,0.61653874372314
143,155,2,2,2,2,1,1,NaN
144,136,2,2,1,2,1,1,NaN
145,122,2,2,1,2,1,1,NaN
146,125,1,2,1,1,1,1,NaN
147,139,1,2,2,1,1,1,NaN
148,175,1,2,1,1,1,1,NaN
149,157,2,1,2,2,1,1,NaN
150,212,2,1,2,2,1,1,NaN
151,211,1,1,1,1,1,1,NaN
152,178,2,1,1,2,1,1,NaN
153,135,1,2,1,1,1,1,NaN
154,187,2,1,1,2,1,1,NaN
155,196,1,2,2,1,1,1,NaN
156,116,2,1,1,2,1,1,NaN
157,113,1,2,1,1,1,1,NaN
158,133,1,1,1,1,1,1,NaN
159,186,1,1,2,1,1,1,NaN
160,166,2,1,2,2,1,1,NaN
161,134,2,1,1,2,1,1,NaN
162,216,1,2,1,1,2,1,0.883468426245599
163,189,2,2,1,2,1,1,NaN
164,154,1,1,2,1,2,1,0.930633933376157
165,111,1,1,2,1,1,1,NaN
166,144,1,2,1,1,1,1,NaN
167,190,1,1,2,1,1,1,NaN
168,147,2,1,2,2,1,1,NaN
169,209,1,2,2,1,1,1,NaN
170,158,1,2,2,1,2,1,0.823802593537039
171,185,2,2,1,2,1,1,NaN
172,160,2,2,2,2,1,1,NaN
173,163,1,2,1,1,1,1,NaN
174,143,2,1,1,2,1,1,NaN
175,174,2,1,2,2,1,1,NaN
176,204,2,1,1,2,1,1,NaN
177,137,1,1,2,1,1,1,NaN
178,172,2,2,2,2,1,1,NaN
179,181,1,1,2,1,1,1,NaN
180,193,2,2,1,2,1,1,NaN
181,114,2,2,1,2,1,1,NaN
182,112,2,1,1,2,1,1,NaN
183,213,1,2,1,1,1,1,NaN
184,121,1,2,2,1,1,1,NaN
185,162,2,1,2,2,1,1,NaN
186,138,2,1,2,2,1,1,NaN
187,141,2,2,2,2,2,1,0.923032304946901
188,128,2,1,1,2,1,1,NaN
189,173,1,1,2,1,1,1,NaN
190,165,1,1,2,1,1,1,NaN
191,191,2,1,2,2,1,1,NaN
192,198,1,1,2,1,1,1,NaN
193,210,2,2,1,2,1,1,NaN
194,142,1,1,1,1,1,1,NaN
195,117,1,2,2,1,1,1,NaN
196,217,2,1,1,2,1,1,NaN
197,214,2,2,1,2,1,1,NaN
198,156,1,1,2,1,1,1,NaN
199,176,2,2,2,2,1,1,NaN
200,119,1,1,2,1,1,1,NaN
201,130,1,2,1,1,1,1,NaN
202,208,2,1,1,2,1,1,NaN
203,118,2,2,2,2,1,1,NaN
204,171,1,2,1,1,1,1,NaN
205,127,1,1,1,1,1,1,NaN
206,164,2,2,1,2,1,1,NaN
207,150,1,1,1,1,1,1,NaN
208,207,1,1,1,1,1,1,NaN
209,129,2,1,1,2,2,1,1.00861244747284
210,218,1,2,1,1,1,1,NaN
211,188,1,2,2,1,1,1,NaN
212,148,1,2,1,1,1,1,NaN
213,123,1,1,2,1,1,1,NaN
214,199,2,2,2,2,2,1,0.803271319457053
215,184,1,2,2,1,1,1,NaN
216,170,2,1,2,2,1,1,NaN
217,145,2,2,2,2,1,1,NaN
218,219,2,2,1,2,1,1,NaN
219,149,2,2,1,2,1,1,NaN
220,151,2,1,2,2,2,1,0.838305534834944
221,290,2,2,2,2,1,1,NaN
222,324,2,2,1,2,1,1,NaN
223,253,2,1,2,2,1,1,NaN
224,326,1,1,1,1,1,1,NaN
225,251,2,2,1,2,1,1,NaN
226,306,2,2,2,2,1,1,NaN
227,256,1,1,1,1,1,1,NaN
228,272,2,1,2,2,2,1,0.853791493258541
229,289,1,2,1,1,1,1,NaN
230,315,2,2,2,2,1,1,NaN
231,296,2,1,2,2,1,1,NaN
232,285,1,2,2,1,1,1,NaN
233,231,2,1,1,2,1,1,NaN
234,277,1,2,1,1,1,1,NaN
235,235,2,1,2,2,1,1,NaN
236,293,1,2,1,1,1,1,NaN
237,239,1,1,1,1,1,1,NaN
238,320,2,1,2,2,2,1,0.727785320063049
239,244,1,1,2,1,1,1,NaN
240,305,1,2,1,1,1,1,NaN
241,265,2,1,1,2,1,1,NaN
242,232,1,2,2,1,1,1,NaN
243,238,1,2,2,1,2,1,0.887242170176251
244,242,1,2,1,1,1,1,NaN
245,269,1,1,2,1,1,1,NaN
246,304,2,1,1,2,1,1,NaN
247,299,1,1,1,1,1,1,NaN
248,222,2,1,2,2,1,1,NaN
249,255,2,2,1,2,1,1,NaN
250,276,2,1,2,2,1,1,NaN
251,321,1,1,2,1,1,1,NaN
252,273,2,2,1,2,1,1,NaN
253,224,1,2,2,1,2,1,0.825108405513674
254,311,2,2,2,2,1,1,NaN
255,243,2,2,1,2,1,1,NaN
256,257,2,1,2,2,1,1,NaN
257,223,1,2,1,1,1,1,NaN
258,282,2,2,2,2,1,1,NaN
259,318,1,2,1,1,1,1,NaN
260,317,2,1,1,2,1,1,NaN
261,227,2,1,1,2,1,1,NaN
262,316,1,1,2,1,1,1,NaN
263,283,1,1,1,1,1,1,NaN
264,303,1,1,1,1,1,1,NaN
265,281,1,2,2,1,1,1,NaN
266,226,1,1,1,1,1,1,NaN
267,275,1,1,2,1,1,1,NaN
268,266,1,2,2,1,1,1,NaN
269,309,2,1,1,2,1,1,NaN
270,264,1,1,1,1,1,1,NaN
271,271,1,2,2,1,1,1,NaN
272,240,2,1,1,2,1,0,1.29142346089247
273,274,2,2,1,2,2,1,0.652501835658768
274,292,2,1,1,2,1,1,NaN
275,325,2,1,2,2,2,1,0.796478287729769
276,258,1,2,1,1,1,1,NaN
277,327,2,1,2,2,1,1,NaN
278,259,2,2,2,2,1,1,NaN
279,294,2,2,1,2,1,1,NaN
280,288,2,1,2,2,1,1,NaN
281,236,1,2,2,1,1,1,NaN
282,270,2,1,2,2,1,1,NaN
283,319,2,2,1,2,1,1,NaN
284,322,2,1,1,2,1,1,NaN
285,286,2,2,2,2,1,1,NaN
286,302,2,2,2,2,1,1,NaN
287,268,1,1,1,1,2,1,0.813843655500023
288,228,1,2,1,1,1,1,NaN
289,287,1,1,2,1,1,1,NaN
290,245,2,1,2,2,1,1,NaN
291,260,1,1,2,1,1,1,NaN
292,221,1,1,1,1,1,1,NaN
293,248,1,1,1,1,1,1,NaN
294,278,2,2,2,2,1,1,NaN
295,229,2,2,1,2,1,1,NaN
296,254,1,2,2,1,1,1,NaN
297,237,2,2,2,2,1,1,NaN
298,250,1,2,2,1,1,1,NaN
299,247,2,2,2,2,1,1,NaN
300,246,1,2,2,1,1,1,NaN
301,267,2,2,1,2,1,1,NaN
302,328,1,2,1,1,1,1,NaN
303,262,1,2,1,1,1,1,NaN
304,233,2,2,1,2,1,1,NaN
305,308,1,1,1,1,2,1,0.692165801247029
306,261,2,1,2,2,1,1,NaN
307,252,1,1,1,1,1,1,NaN
308,225,2,2,2,2,1,1,NaN
309,280,2,1,1,2,1,1,NaN
310,300,2,1,1,2,1,1,NaN
311,310,1,2,1,1,1,1,NaN
312,284,2,1,2,2,1,1,NaN
313,241,1,1,2,1,2,1,0.708360854789134
314,249,2,1,1,2,1,1,NaN
315,312,1,1,2,1,1,1,NaN
316,234,1,1,1,1,1,1,NaN
317,295,1,1,2,1,1,1,NaN
318,298,2,2,2,2,1,1,NaN
319,263,2,2,1,2,1,1,NaN
320,313,2,1,1,2,1,1,NaN
321,307,1,1,1,1,1,1,NaN
322,329,2,2,2,2,1,1,NaN
323,323,1,2,1,1,1,1,NaN
324,330,2,2,2,2,2,1,0.722337608291127
325,230,1,1,2,1,1,1,NaN
326,314,1,2,2,1,1,1,NaN
327,279,1,1,2,1,1,1,NaN
328,291,1,1,1,1,1,1,NaN
329,297,1,2,2,1,1,1,NaN
330,301,1,2,1,1,1,1,NaN
331,357,2,1,1,2,1,1,NaN
332,413,2,2,2,2,1,1,NaN
333,367,1,2,1,1,1,1,NaN
334,400,2,1,1,2,1,1,NaN
335,360,2,2,1,2,1,1,NaN
336,342,1,2,1,1,1,1,NaN
337,381,1,1,1,1,1,1,NaN
338,375,1,2,2,1,1,1,NaN
339,429,2,2,2,2,1,1,NaN
340,372,2,2,1,2,1,1,NaN
341,439,1,2,2,1,1,1,NaN
342,365,1,1,2,1,1,1,NaN
343,387,2,1,2,2,2,1,0.799829442577902
344,405,1,2,2,1,2,1,1.04183134422783
345,438,2,2,1,2,2,1,1.07847631467121
346,371,1,2,1,1,1,1,NaN
347,350,1,2,1,1,1,1,NaN
348,331,1,1,1,1,1,1,NaN
349,378,2,1,1,2,1,1,NaN
350,356,1,1,2,1,1,1,NaN
351,366,2,1,2,2,1,1,NaN
352,419,2,1,1,2,1,1,NaN
353,394,1,1,2,1,1,1,NaN
354,340,1,1,1,1,1,1,NaN
355,426,1,1,1,1,1,1,NaN
356,353,2,1,2,2,1,1,NaN
357,347,2,2,2,2,1,1,NaN
358,386,2,1,1,2,1,1,NaN
359,382,2,1,2,2,1,1,NaN
360,428,1,2,1,1,1,1,NaN
361,344,1,1,2,1,1,1,NaN
362,425,2,2,1,2,1,1,NaN
363,332,2,2,1,2,2,1,0.755181618193092
364,418,1,1,1,1,1,1,NaN
365,408,2,2,1,2,1,1,NaN
366,361,1,1,1,1,1,1,NaN
367,336,1,1,1,1,1,1,NaN
368,401,2,2,2,2,2,1,0.749692935183703
369,431,1,2,2,1,2,1,1.06168571487979
370,397,2,2,1,2,1,1,NaN
371,380,2,2,1,2,1,1,NaN
372,404,1,1,2,1,1,1,NaN
373,389,2,2,2,2,1,1,NaN
374,384,2,2,2,2,1,1,NaN
375,399,1,1,2,1,1,1,NaN
376,391,2,1,1,2,1,1,NaN
377,348,1,1,1,1,1,1,NaN
378,369,1,1,2,1,1,1,NaN
379,341,2,1,2,2,1,1,NaN
380,427,2,1,1,2,1,1,NaN
381,414,1,1,2,1,1,1,NaN
382,440,2,2,1,2,1,1,NaN
383,416,1,2,1,1,1,1,NaN
384,423,2,1,2,2,1,1,NaN
385,359,2,1,1,2,2,1,0.693952439998611
386,374,2,1,2,2,1,1,NaN
387,396,1,2,1,1,1,1,NaN
388,420,1,2,2,1,1,1,NaN
389,346,1,2,1,1,1,1,NaN
390,362,2,1,1,2,1,1,NaN
391,385,1,1,2,1,1,1,NaN
392,368,2,2,2,2,1,1,NaN
393,370,2,1,2,2,1,1,NaN
394,436,1,1,2,1,1,1,NaN
395,337,2,1,2,2,1,1,NaN
396,435,1,1,2,1,2,1,0.679565974085563
397,352,1,1,1,1,1,1,NaN
398,395,2,1,2,2,1,1,NaN
399,430,1,1,1,1,1,1,NaN
400,355,2,2,1,2,1,1,NaN
401,415,2,1,2,2,1,1,NaN
402,349,2,1,1,2,1,1,NaN
403,335,2,2,2,2,1,1,NaN
404,422,1,1,2,1,1,1,NaN
405,364,2,2,1,2,1,1,NaN
406,379,1,2,2,1,1,1,NaN
407,339,2,2,2,2,1,1,NaN
408,409,1,1,2,1,1,1,NaN
409,392,1,2,2,1,1,1,NaN
410,407,1,2,1,1,1,1,NaN
411,410,1,1,1,1,2,1,0.77416856914715
412,424,1,2,1,1,1,1,NaN
413,334,1,2,1,1,1,1,NaN
414,437,2,1,1,2,1,1,NaN
415,351,2,2,1,2,1,1,NaN
416,373,1,1,2,1,1,1,NaN
417,406,2,1,2,2,1,1,NaN
418,398,1,2,1,1,2,1,0.736888251818527
419,383,1,2,2,1,1,1,NaN
420,345,2,1,2,2,1,1,NaN
421,403,2,2,1,2,1,1,NaN
422,411,2,1,1,2,1,1,NaN
423,333,2,1,2,2,1,1,NaN
424,338,1,2,2,1,1,1,NaN
425,343,2,2,2,2,1,1,NaN
426,432,2,1,1,2,1,1,NaN
427,377,1,1,2,1,1,1,NaN
428,388,1,2,1,1,1,1,NaN
429,376,2,2,1,2,1,1,NaN
430,393,2,2,2,2,1,1,NaN
431,412,1,2,2,1,1,1,NaN
432,434,2,2,1,2,1,1,NaN
433,417,2,2,1,2,1,1,NaN
434,433,1,2,1,1,1,1,NaN
435,354,1,2,1,1,1,1,NaN
436,390,1,1,2,1,1,1,NaN
437,358,1,2,2,1,1,1,NaN
438,421,2,2,1,2,1,1,NaN
439,402,1,2,1,1,1,1,NaN
440,363,1,2,2,1,1,1,NaN
