PresOrder,TrialNumber,Background,StairNum,CurrSize,Response,ReactionTIme,Stair_Update
1,47,1,2,0.99,1,1.35728565111435,0
2,45,1,3,0.99,1,1.21305316254461,0
3,11,1,2,1.2,2,1.21579912970719,1
4,54,1,3,1.2,2,1.08001583840382,1
5,65,1,2,1.1,1,1.13801711495807,0
6,19,1,1,0.99,1,1.01281090403268,0
7,14,1,2,1.15,2,1.02989893799008,1
8,25,1,1,1.2,2,1.50950611513986,1
9,69,1,3,1.1,1,1.3873765697565,0
10,9,1,3,1.15,2,1.05136506730582,1
11,101,1,5,0.5,1,1.02825364038904,0
12,4,1,1,1.1,2,1.01732596119837,1
13,49,1,1,1.025,1,1.01153903221257,0
14,97,1,4,1.5,2,1.01408804361472,1
15,85,1,1,1.05,1,1.01175998555459,0
16,104,1,5,0.5,1,1.06535682794106,0
17,52,1,1,1.075,2,1.17792801954693,1
18,58,1,1,1.05,1,1.11493934318628,0
19,50,1,2,1.125,2,1.07251922806222,1
20,86,1,2,1.1,1,1.10106815576546,0
21,94,1,4,1.5,2,1.14847830457666,1
22,35,1,2,1.1,1,1.04981927187237,0
23,66,1,3,1.125,1,1.1871878668228,0
24,32,1,2,1.125,1,1.01948779210829,0
25,21,1,3,1.15,2,1.08116801496976,1
26,42,1,3,1.125,1,1.08134126580217,0
27,28,1,1,1.075,1,1.01421329928417,0
28,76,1,1,1.1,2,1.07622246460414,1
29,110,1,5,0.5,1,1.01721914269524,0
30,77,1,2,1.15,2,1.01191714044808,1
31,99,1,4,1.5,2,1.10566983834701,1
32,70,1,1,1.075,1,1.05686870776844,0
33,75,1,3,1.15,2,1.04685264402133,1
34,31,1,1,1.1,2,1.14289652564753,1
35,79,1,1,1.075,1,1.22093197826985,0
36,30,1,3,1.125,1,1.05903405051959,0
37,20,1,2,1.125,1,1.04062410100528,0
38,87,1,3,1.125,2,1.02976285414343,1
39,98,1,4,1.5,2,1.58720355304695,1
40,57,1,3,1.1,1,1.06798017331516,0
41,106,1,5,0.5,1,1.06856665079499,0
42,22,1,1,1.075,2,1.46943190993534,1
43,51,1,3,1.125,2,1.16578173146058,1
44,41,1,2,1.15,2,1.0506787950053,1
45,12,1,3,1.1,1,1.17192160048648,0
46,27,1,3,1.15,2,1.16386075432592,1
47,18,1,3,1.1,1,1.11276785471273,0
48,90,1,3,1.15,2,1.12071837052895,1
49,71,1,2,1.125,1,1.17827539917198,0
50,1,1,1,1.1,1,1.09157711227749,0
51,39,1,3,1.1,1,1.09426864590137,0
52,64,1,1,1.25,2,1.02523023777212,1
53,88,1,1,1.2,2,1.22762818147203,1
54,3,1,3,1.125,2,1.29358231507013,1
55,38,1,2,1.125,1,1.08585134785926,0
56,73,1,1,0.975,1,1.37697332551761,0
57,96,1,4,1.5,2,1.06612592116335,1
58,63,1,3,1.1,2,1.23423424741691,1
59,48,1,3,1.1,1,1.63756657499789,0
60,61,1,1,1.15,1,1.04181549313125,0
61,103,1,5,0.5,1,1.13672153820994,0
62,5,1,2,1.125,2,1.04154127686456,1
63,17,1,2,1.15,2,1.09449018455007,1
64,8,1,2,1.15,2,1.46991625136707,1
65,53,1,2,1.1,1,1.17901083724928,0
66,15,1,3,1.1,1,1.06730004673682,0
67,62,1,2,1.125,1,1.10676787402804,0
68,107,1,5,0.5,1,1.16404161414744,0
69,109,1,5,0.5,1,1.15566558023943,0
70,84,1,3,1.1,2,1.01155746937911,1
71,95,1,4,1.5,2,1.05159245902337,1
72,74,1,2,1.125,1,1.01151064482951,0
73,68,1,2,1.125,1,1.13561443027265,0
74,93,1,4,1.5,2,1.0538745704946,1
75,102,1,5,0.5,1,1.08750483975609,0
76,108,1,5,0.5,1,1.04735074016435,0
77,91,1,4,1.5,2,1.09659728926817,1
78,55,1,1,1.35,2,1.15587716867162,1
79,23,1,2,1.125,1,1.10157503151163,0
80,33,1,3,1.025,1,1.14071391634388,0
81,100,1,4,1.5,2,1.18341702733778,1
82,44,1,2,1.125,1,1.02610234500253,0
83,34,1,1,0.875,1,1.01554340913731,0
84,6,1,3,1.2,2,1.01874854953644,1
85,37,1,1,1.3,2,1.02140759862937,1
86,78,1,3,1.05,1,1.0833801822705,0
87,67,1,1,1.25,2,1.01564115538395,1
88,80,1,2,1.125,1,1.05061763043773,0
89,7,1,1,1.175,2,1.09177465334483,1
90,29,1,2,1.125,1,1.07168984823284,0
91,59,1,2,1.125,1,1.06771561461164,0
92,83,1,2,1.125,2,1.30048718017019,1
93,82,1,1,1.1,1,1.08370414962087,0
94,81,1,3,1.1,2,1.02764638451549,1
95,60,1,3,1.01,1,1.36990018469373,0
96,56,1,2,1.125,2,1.24251692487951,1
97,10,1,1,0.95,1,1.12913098611625,0
98,43,1,1,1.2,2,1.18249516902347,1
99,36,1,3,1.2,2,1.25933132787691,1
100,92,1,4,1.5,2,1.17897074372877,1
101,40,1,1,1.15,2,1.09168773527517,1
102,72,1,3,1.05,1,1.0792367949648,0
103,16,1,1,1.15,1,1.08606703343935,0
104,26,1,2,1.15,2,1.04283509769198,1
105,105,1,5,0.5,1,1.11405348124413,0
106,24,1,3,1.175,2,1.07563598712454,1
107,2,1,2,1.125,1,1.06491609187083,0
108,13,1,1,0.975,1,1.13758515849077,0
109,46,1,1,1.2,2,1.05041277303462,1
110,89,1,2,1.125,1,1.3874787058046,0
111,197,2,3,0.99,1,1.00576790651257,0
112,204,2,4,1.5,2,1.19082701226307,1
113,111,2,1,0.99,1,1.18686828927389,0
114,191,2,3,1.2,2,1.11794957639881,1
115,195,2,1,1.2,2,1.09330815733392,1
116,152,2,3,1.1,2,1.16653443609061,1
117,124,2,2,0.99,1,1.20664639358779,0
118,137,2,3,1.025,1,1.09439273095677,0
119,174,2,1,1.1,2,1.00603802563114,1
120,169,2,2,1.2,2,1.01548282987687,1
121,135,2,1,1.025,2,1.13813915143965,1
122,118,2,2,1.1,2,1.14219445006188,1
123,139,2,2,1.025,1,1.02240671744994,0
124,134,2,3,1.05,2,1.14473555982113,1
125,149,2,3,1.01,1,1.20623931266232,0
126,203,2,4,1.5,2,1.04123340545289,1
127,125,2,3,1.05,2,1.00582409597155,1
128,218,2,5,0.5,1,1.0298755257154,0
129,141,2,1,0.975,2,1.00569006069918,1
130,162,2,1,0.8,1,1.00565991739563,0
131,136,2,2,1.05,2,1.42191026016576,1
132,170,2,3,1.025,2,1.05442358833511,1
133,132,2,1,0.9,1,1.03024543965466,0
134,201,2,4,1.5,2,1.06814113270343,1
135,165,2,1,0.95,1,1.02127473397081,0
136,157,2,2,1.01,2,1.00563240797283,1
137,113,2,3,0.99,1,1.21024047039941,0
138,217,2,5,0.5,1,1.05455908687463,0
139,175,2,2,0.9,1,1.07783791155498,0
140,219,2,5,0.5,1,1.04590239832396,0
141,156,2,1,0.99,2,1.00588204135147,1
142,154,2,2,0.95,2,1.47574122529886,1
143,214,2,5,0.5,1,1.11824808290066,0
144,209,2,4,1.5,2,1.00581736494269,1
145,185,2,3,1.01,2,1.12588282566276,1
146,117,2,1,0.925,1,1.03865864054865,0
147,147,2,1,0.975,1,1.05424916688867,0
148,210,2,4,1.5,2,1.08604566973895,1
149,178,2,2,0.7,1,1.02095222988737,0
150,202,2,4,1.5,2,1.00575795629561,1
151,138,2,1,1.1,2,1.42126700792005,1
152,188,2,3,0.9,1,1.00586857929352,0
153,126,2,1,1.01,1,1.22663433041316,0
154,189,2,1,1.175,2,1.09376703791713,1
155,194,2,3,0.925,1,1.02808653527904,0
156,114,2,1,1.15,2,1.03027060784984,1
157,148,2,2,0.75,1,1.00662713699194,0
158,206,2,4,1.5,2,1.04442420583359,1
159,145,2,2,1.25,2,1.03755650771973,1
160,213,2,5,0.5,1,1.0710322559687,0
161,184,2,2,0.825,1,1.0415948324428,0
162,161,2,3,0.95,1,1.04691644246986,0
163,119,2,3,1.025,2,1.11636076091077,1
164,158,2,3,1.01,2,1.29928817905466,1
165,192,2,1,1.01,1,1.29860834512965,0
166,187,2,2,0.95,1,1.09789813377847,0
167,133,2,2,1.175,2,1.13723865682596,1
168,115,2,2,1.025,2,1.16605185057938,1
169,198,2,1,1.05,2,1.06006301999037,1
170,122,2,3,0.975,1,1.16677792374685,0
171,179,2,3,1.025,2,1.00570820521216,1
172,207,2,4,1.5,2,1.06111540173561,1
173,130,2,2,0.975,1,1.13306015110879,0
174,182,2,3,1.01,2,1.01250683711578,1
175,164,2,3,1.01,2,1.43917476414322,1
176,121,2,2,1.01,2,1.27887472413749,1
177,163,2,2,0.99,1,1.1290004626851,0
178,172,2,2,0.99,2,1.29405758424537,1
179,173,2,3,0.99,1,1.14226819872692,0
180,183,2,1,1.01,1,1.17491983490822,0
181,128,2,3,1.01,1,1.24919498356894,0
182,155,2,3,0.99,2,1.14638056476838,1
183,131,2,3,0.9,1,1.12626005593779,0
184,186,2,1,1.025,2,1.35806001209835,1
185,112,2,2,0.85,1,1.03853806733423,0
186,220,2,5,0.5,1,1.2546231194458,0
187,205,2,4,1.5,2,1.07721251116845,1
188,142,2,2,0.9,1,1.09309305706051,0
189,181,2,2,0.975,2,1.22950057813682,1
190,176,2,3,0.925,1,1.11048252405408,0
191,160,2,2,1.125,2,1.00576790651235,1
192,177,2,1,1.01,2,1.06743905711733,1
193,127,2,2,0.875,1,1.08479984407427,0
194,153,2,1,0.875,1,1.15614523921636,0
195,216,2,5,0.5,1,1.31874260867176,0
196,151,2,2,0.9,1,1.17681622915484,0
197,196,2,2,1.05,2,1.09408193301101,1
198,168,2,1,0.99,1,1.19656594608568,0
199,180,2,1,0.99,2,1.03028085072015,1
200,143,2,3,0.99,2,1.00566635577115,1
201,150,2,1,0.875,1,1.10130754627357,0
202,166,2,2,0.95,1,1.02060982537068,0
203,199,2,2,0.975,1,1.07001235875464,0
204,193,2,2,1.01,2,1.10272633011709,1
205,215,2,5,0.5,1,1.054074160136,0
206,167,2,3,0.9,1,1.05682685832721,0
207,190,2,2,0.975,1,1.14240779441434,0
208,120,2,1,1.1,2,1.06203579678254,1
209,159,2,1,0.925,1,1.17488354588272,0
210,212,2,5,0.5,1,1.02277575342896,0
211,129,2,1,1.05,2,1.00538277459464,1
212,123,2,1,0.99,1,1.08308196842222,0
213,208,2,4,1.5,2,1.02704585967081,1
214,200,2,3,0.925,1,1.10091802455418,0
215,171,2,1,0.99,2,1.00570791255859,1
216,146,2,3,1.05,2,1.08787329042843,1
217,116,2,3,0.975,1,1.11035756103797,0
218,144,2,1,0.95,1,1.16636177056489,0
219,140,2,3,1.01,1,1.09406203257777,0
220,211,2,5,0.5,1,1.05930826678627,0
