PresOrder,TrialNumber,Background,StairNum,CurrSize,Response,ReactionTIme,Stair_Update
1,95,1,4,1.5,2,1.09977053044315,1
2,103,1,5,0.5,1,0.695267296476345,0
3,78,1,3,0.99,1,0.738547520040129,0
4,8,1,2,0.99,1,0.724345341586627,0
5,12,1,3,1.2,2,0.791253525376419,1
6,98,1,4,1.5,2,0.761253914605504,1
7,45,1,3,1.1,1,0.714800157213404,0
8,70,1,1,0.99,1,0.777701037544148,0
9,19,1,1,1.2,2,0.736770235741119,1
10,28,1,1,1.1,1,0.80709661162939,0
11,108,1,5,0.5,1,0.703568703758947,0
12,22,1,1,1.15,2,0.692248868967681,1
13,87,1,3,1.15,2,0.744947850621429,1
14,13,1,1,1.125,1,1.28523613181233,0
15,53,1,2,1.2,2,0.696904985087826,1
16,92,1,4,1.5,2,0.74110501839175,1
17,59,1,2,1.1,1,0.718187035394294,0
18,11,1,2,1.15,2,0.753286424890007,1
19,52,1,1,1.15,1,0.729567449446336,0
20,106,1,5,0.5,1,0.732132264133838,0
21,36,1,3,1.125,2,0.706484995219512,1
22,71,1,2,1.125,2,0.653250457783088,1
23,109,1,5,0.5,1,0.610859608002443,0
24,35,1,2,1.1,2,0.593456971604724,1
25,88,1,1,1.175,2,0.616054206439458,1
26,18,1,3,1.1,1,0.684207923240592,0
27,6,1,3,1.1,2,0.658220005730186,1
28,79,1,1,1.1,2,0.587136828064104,1
29,86,1,2,1.025,1,0.611911111787549,0
30,57,1,3,1.025,1,0.602690772725055,0
31,40,1,1,0.825,1,0.585858810521813,0
32,41,1,2,1.075,2,0.570671267959142,1
33,72,1,3,1.075,2,0.586119857384119,1
34,26,1,2,1.05,1,0.654050864922624,0
35,34,1,1,0.85,1,0.643157718836733,0
36,14,1,2,1.01,2,0.589437084048086,1
37,48,1,3,0.875,1,0.604154039890432,0
38,25,1,1,0.9,1,0.595876922842763,0
39,93,1,4,1.5,2,0.591289287625955,1
40,96,1,4,1.5,2,0.630287991463888,1
41,60,1,3,0.9,1,0.637182028386746,0
42,94,1,4,1.5,2,0.610158410376812,1
43,50,1,2,0.75,1,0.602508156982822,0
44,23,1,2,0.8,1,0.636436054785804,0
45,30,1,3,0.925,1,0.626574512051661,0
46,69,1,3,1.075,2,0.594067446666145,1
47,4,1,1,1.3,2,0.61272000587644,1
48,21,1,3,1.05,1,0.599361254616952,0
49,63,1,3,1.2,2,0.577416051631076,1
50,43,1,1,1.25,2,0.566694693110435,1
51,76,1,1,1.125,2,0.691723848708648,1
52,51,1,3,1.075,1,0.571030353721426,0
53,85,1,1,0.925,1,0.602392851530226,0
54,55,1,1,1.025,2,0.501939853281101,1
55,2,1,2,0.825,1,0.59723483477228,0
56,5,1,2,1.25,2,0.576761971208157,1
57,77,1,2,0.9,1,0.569432758630228,0
58,38,1,2,1.05,1,0.585427732014978,0
59,82,1,1,0.8,1,0.605276365806276,0
60,101,1,5,0.5,1,0.580121632619807,0
61,15,1,3,1.25,2,0.564752644928603,1
62,44,1,2,1.075,2,0.577240166917818,1
63,80,1,2,1.05,1,0.569501532187019,0
64,67,1,1,0.825,1,0.570178146924263,0
65,81,1,3,1.2,2,0.59519650361085,1
66,64,1,1,1.025,1,0.55815623654712,0
67,110,1,5,0.5,1,0.571210042929351,0
68,32,1,2,1.075,1,0.714766794722095,0
69,68,1,2,1.2,2,0.561795674640848,1
70,73,1,1,1.3,2,0.59532556377485,1
71,89,1,2,1.1,1,0.710261395119915,0
72,37,1,1,1.25,2,0.563759671830098,1
73,61,1,1,1.05,1,0.721187318390321,0
74,31,1,1,1.075,1,0.659832233492921,0
75,10,1,1,1.1,1,0.889163950598913,0
76,49,1,1,1.2,2,0.588696963515872,1
77,104,1,5,0.5,1,0.564227039362663,0
78,84,1,3,0.99,1,0.589200327420713,0
79,27,1,3,1.1,2,0.581775124516753,1
80,47,1,2,1.25,2,0.536827654344734,1
81,42,1,3,1.075,2,0.626698304453839,1
82,3,1,3,1.05,1,0.610128559726604,0
83,17,1,2,1.25,2,0.556591418640437,1
84,102,1,5,0.5,1,0.540702385798568,0
85,100,1,4,1.5,2,0.522624305277304,1
86,107,1,5,0.5,1,0.51350902879733,0
87,7,1,1,1.125,2,0.876879237438743,1
88,56,1,2,0.975,1,0.580666553312312,0
89,83,1,2,1.175,2,0.561013997321083,1
90,65,1,2,1.1,2,0.574024783648724,1
91,97,1,4,1.5,2,0.573649016640616,1
92,24,1,3,1.075,1,0.522458078127329,0
93,66,1,3,1.125,1,0.66830952548878,0
94,54,1,3,1.25,2,0.545166228613311,1
95,33,1,3,1.2,2,0.568895154273719,1
96,9,1,3,1.01,1,0.578749380672207,0
97,91,1,4,1.5,2,0.555504503790075,1
98,46,1,1,1.075,1,0.564485452344229,0
99,58,1,1,1.075,1,0.497180430499043,0
100,16,1,1,1.15,2,0.589893623403555,1
101,99,1,4,1.5,2,0.532274844886388,1
102,20,1,2,1.05,1,0.554439537947019,0
103,105,1,5,0.5,1,0.538628058264976,0
104,29,1,2,1.075,1,0.541262817122856,0
105,74,1,2,1.125,1,0.550906625702964,0
106,1,1,1,1.1,1,0.549522082311114,0
107,75,1,3,1.15,1,0.617445480860283,0
108,62,1,2,1.2,1,0.589418939535108,0
109,90,1,3,1.25,2,0.548119101752945,1
110,39,1,3,1.2,2,0.921636482879308,1
111,188,2,3,0.99,2,0.948802330457738,1
112,216,2,5,0.5,1,0.602225161112983,0
113,151,2,2,0.99,1,0.669641976569551,0
114,153,2,1,0.99,1,0.589413964426853,0
115,202,2,4,1.5,2,0.607048382343578,1
116,167,2,3,0.75,1,0.572910944682349,0
117,136,2,2,1.2,2,0.574772805823613,1
118,162,2,1,1.2,2,0.582189521777991,1
119,197,2,3,0.9,1,0.534523301212744,0
120,152,2,3,0.975,1,0.583147376464467,0
121,115,2,2,1.1,2,0.509268480552123,1
122,206,2,4,1.5,2,0.566748833995462,1
123,205,2,4,1.5,2,0.601451092782554,1
124,175,2,2,1.025,1,0.565283225602684,0
125,182,2,3,1.1,2,0.841380961313916,1
126,132,2,1,1.1,2,0.798521280733326,1
127,134,2,3,1.01,1,0.629867448480582,0
128,166,2,2,1.05,1,0.632629804235307,0
129,213,2,5,0.5,1,0.547076962877782,0
130,187,2,2,1.075,2,0.687903258139954,1
131,140,2,3,1.05,2,1.45417793504316,1
132,145,2,2,1.05,1,0.758719535875002,0
133,112,2,2,1.075,1,0.63877611163673,0
134,218,2,5,0.5,1,0.592452585022443,0
135,163,2,2,1.1,2,0.556160632786941,1
136,127,2,2,1.075,2,0.51874869586311,1
137,165,2,1,1.025,1,0.67882631925977,0
138,220,2,5,0.5,1,0.552406474547411,0
139,191,2,3,1.01,2,0.590061313820797,1
140,192,2,1,1.05,2,0.598773313869856,1
141,137,2,3,0.925,1,0.533232992226203,0
142,146,2,3,1.1,2,0.467187843410557,1
143,126,2,1,1.01,1,1.1078583007195,0
144,114,2,1,1.05,2,0.558993225365725,1
145,199,2,2,1.05,2,0.598266438123801,1
146,113,2,3,0.99,1,0.623023455294742,0
147,149,2,3,1.125,2,0.638530868059888,1
148,139,2,2,0.925,1,0.645987092227756,0
149,144,2,1,1.025,2,0.646988844929069,1
150,173,2,3,1.025,2,0.643191081328155,1
151,179,2,3,0.975,1,0.598535386628782,0
152,177,2,1,0.99,2,0.574584922319559,1
153,219,2,5,0.5,1,0.59892139650708,0
154,176,2,3,1.01,2,0.568971536819731,1
155,158,2,3,0.99,1,0.557179066733966,0
156,159,2,1,0.8,1,0.582370381599617,0
157,168,2,1,0.825,1,0.558056734379875,0
158,155,2,3,1.01,2,0.550843705214902,1
159,193,2,2,0.95,1,0.534463307258875,0
160,210,2,4,1.5,2,0.574437424989242,1
161,142,2,2,1.15,2,0.556138976432862,1
162,119,2,3,0.99,1,0.598817211884807,0
163,164,2,3,1.01,2,0.556809738101492,1
164,181,2,2,0.99,1,0.614906712328434,0
165,204,2,4,1.5,2,0.500864351914629,1
166,208,2,4,1.5,2,0.516333719733439,1
167,198,2,1,0.875,1,0.619152235682009,0
168,117,2,1,0.9,1,0.484959515787295,0
169,190,2,2,1.05,2,0.501536869503752,1
170,200,2,3,0.99,1,0.596965008307052,0
171,171,2,1,1.01,2,0.520348339528368,1
172,135,2,1,1.175,2,0.469877035807031,1
173,196,2,2,0.95,1,0.518405413386176,0
174,214,2,5,0.5,1,0.517785280761473,0
175,141,2,1,0.85,1,0.517258797235286,0
176,209,2,4,1.5,2,0.524330767445576,1
177,121,2,2,1.125,1,0.459007009342372,0
178,207,2,4,1.5,2,0.47078338348922,1
179,123,2,1,0.95,1,0.533094274498922,0
180,169,2,2,1.25,2,0.45888087571268,1
181,174,2,1,0.975,1,0.510948311258062,0
182,195,2,1,1.01,2,0.578663633216365,1
183,215,2,5,0.5,1,0.398785956498273,0
184,170,2,3,1.01,2,0.594224308906291,1
185,184,2,2,1.25,2,0.519304737385937,1
186,178,2,2,0.9,1,0.502785621702628,0
187,118,2,2,1.175,2,0.46276760595731,1
188,131,2,3,0.99,1,0.412818688614038,0
189,157,2,2,1.1,2,0.414113972708947,1
190,189,2,1,1.05,2,0.750323601533637,1
191,150,2,1,0.975,1,0.534611097242646,0
192,138,2,1,1.01,2,0.621376694426885,1
193,148,2,2,1.075,2,0.502996039521122,1
194,212,2,5,0.5,1,0.454663739742159,0
195,129,2,1,0.99,2,0.441990090169384,1
196,124,2,2,1.025,2,0.438953225494402,1
197,211,2,5,0.5,1,0.45468159160157,0
198,122,2,3,1.01,2,0.517324058950976,1
199,203,2,4,1.5,2,0.468998490200988,1
200,133,2,2,0.925,1,0.470723682188918,0
201,172,2,2,0.95,1,0.502283428411488,0
202,160,2,2,1.01,2,0.565641140751381,1
203,147,2,1,0.975,2,0.555627710885346,1
204,185,2,3,0.99,1,0.454586186582333,0
205,180,2,1,0.925,1,0.446805702410643,0
206,125,2,3,1.01,2,0.499206470216222,1
207,128,2,3,0.99,1,0.434516014142218,0
208,154,2,2,0.925,1,0.444922184915413,0
209,183,2,1,0.95,1,0.462702636895301,0
210,161,2,3,1.01,1,0.501932536945333,0
211,217,2,5,0.5,1,0.405760180461812,0
212,143,2,3,1.01,2,0.473984134086777,1
213,120,2,1,0.95,1,0.414900625137079,0
214,201,2,4,1.5,2,0.399095876483898,1
215,130,2,2,0.95,1,0.408854112556355,0
216,111,2,1,1.01,1,0.494269406800186,0
217,156,2,1,1.05,2,0.580095586464267,1
218,186,2,1,1.05,2,0.502140320882745,1
219,194,2,3,1.01,1,0.477672152650371,0
220,116,2,3,1.01,2,0.654370735124871,1
