PresOrder,TrialNumber,Background,StairNum,CurrSize,Response,ReactionTIme,Stair_Update
1,84,2,3,0.99,2,1.87537399999565,1
2,82,2,1,0.99,2,1.35548910003854,1
3,76,2,1,0.75,1,1.27205350005534,0
4,61,2,1,0.9,1,1.27217219996965,0
5,47,2,2,0.99,1,1.34408120001899,0
6,42,2,3,0.75,1,1.36541440000292,0
7,65,2,2,1.2,2,1.28969560004771,1
8,12,2,3,0.9,1,1.32146070001181,0
9,31,2,1,0.975,1,1.35113720002118,0
10,64,2,1,1.1,2,1.31574400002137,1
11,23,2,2,1.1,2,1.30626390001271,1
12,71,2,2,1.025,1,1.25634919997538,0
13,9,2,3,0.975,2,1.44895609997911,1
14,26,2,2,1.05,2,1.2740009999834,1
15,15,2,3,0.925,1,1.2577203999972,0
16,59,2,2,1.01,2,1.17060460004723,1
17,7,2,1,1.01,2,1.25462490000064,1
18,20,2,2,0.9,1,1.39917419996345,0
19,24,2,3,0.95,1,1.25018510001246,0
20,85,2,1,0.975,2,1.48276049998822,1
21,78,2,3,0.975,2,1.32223039999371,1
22,33,2,3,0.95,2,1.61646069999551,1
23,58,2,1,0.95,1,1.31402789999265,0
24,62,2,2,0.95,1,1.27998210000806,0
25,44,2,2,1.025,2,1.29615619999822,1
26,77,2,2,0.975,1,1.2635618999484,0
27,98,2,4,1.5,2,1.28758140001446,1
28,103,2,5,0.5,1,1.2711611999548,0
29,105,2,5,0.5,1,1.35923750000075,0
30,41,2,2,1.01,1,1.33149110001978,0
31,27,2,3,0.925,2,1.48909809999168,1
32,75,2,3,1.1,2,1.26474280003458,1
33,100,2,4,1.5,2,1.2884412999847,1
34,107,2,5,0.5,1,1.29553519998444,0
35,104,2,5,0.5,1,1.34336870000698,0
36,39,2,3,0.825,1,1.25249730003998,0
37,101,2,5,0.5,1,1.25334070000099,0
38,110,2,5,0.5,1,1.23793110001134,0
39,40,2,1,0.95,2,1.34337030001916,1
40,5,2,2,1.125,2,1.28467779996572,1
41,6,2,3,0.85,1,1.26802760001738,0
42,29,2,2,1.075,2,1.34845879999921,1
43,51,2,3,1.025,2,1.28898579999804,1
44,94,2,4,1.5,2,1.28838260000339,1
45,54,2,3,0.925,1,1.30336780002108,0
46,79,2,1,0.8,1,1.27034380001714,0
47,63,2,3,0.95,1,1.2782722999691,0
48,96,2,4,1.5,2,1.31791879999219,1
49,17,2,2,1.01,2,1.34859090001555,1
50,52,2,1,1.125,2,1.33710799994878,1
51,109,2,5,0.5,1,1.27846040000441,0
52,37,2,1,0.85,1,1.35843770002248,0
53,57,2,3,0.99,2,1.28351619996829,1
54,81,2,3,0.95,2,1.33330869994825,1
55,49,2,1,0.925,1,1.2721668999875,0
56,93,2,4,1.5,2,1.29626500001177,1
57,88,2,1,0.975,1,1.23134910000954,0
58,14,2,2,0.925,1,1.35282249999,0
59,46,2,1,1.1,2,1.29346309998073,1
60,91,2,4,1.5,2,1.2447687999811,1
61,72,2,3,0.925,2,1.49392410001019,1
62,19,2,1,1.05,2,1.2936109000002,1
63,97,2,4,1.5,2,1.27685289998772,1
64,102,2,5,0.5,1,1.35716559999855,0
65,74,2,2,0.99,2,1.32251510000788,1
66,2,2,2,0.85,1,1.19171560002724,0
67,32,2,2,0.875,1,1.27527829998871,0
68,28,2,1,0.95,2,1.52312770002754,1
69,60,2,3,0.8,1,1.51283649995457,0
70,35,2,2,1.075,2,1.44820390001405,1
71,53,2,2,0.975,1,1.40865830000257,0
72,3,2,3,0.825,1,1.33950850000838,0
73,106,2,5,0.5,1,1.28838030004408,0
74,87,2,3,0.875,1,1.02403889998095,0
75,89,2,2,1.01,2,1.14602109999396,1
76,36,2,3,1.01,2,1.26358069997514,1
77,18,2,3,0.925,1,1.29570499999681,0
78,25,2,1,0.825,2,1.42287509999005,1
79,34,2,1,0.65,1,1.90492500003893,0
80,83,2,2,0.99,2,2.37567480001599,1
81,10,2,1,0.7,1,1.35546549997525,0
82,73,2,1,1.175,2,1.26443109998945,1
83,16,2,1,0.75,1,1.24849139997968,0
84,99,2,4,1.5,2,1.28955420001876,1
85,4,2,1,0.825,1,1.26434439996956,0
86,50,2,2,0.975,2,1.48845559998881,1
87,80,2,2,0.875,2,1.33596559998114,1
88,13,2,1,1.075,2,1.30123270000331,1
89,95,2,4,1.5,2,1.14799860003404,1
90,38,2,2,0.75,1,1.25643960002344,0
91,92,2,4,1.5,2,1.3133837999776,1
92,8,2,2,0.75,2,1.40024250000715,1
93,21,2,3,0.925,1,1.14666209998541,0
94,30,2,3,0.925,1,1.30419009999605,0
95,108,2,5,0.5,1,1.12683649995597,0
96,68,2,2,0.6,1,1.17269979999401,0
97,90,2,3,0.925,2,1.20930290000979,1
98,69,2,3,0.99,2,1.2036232999526,1
99,67,2,1,0.9,1,1.26248360000318,0
100,48,2,3,0.9,1,1.19902360002743,0
101,70,2,1,0.925,2,1.57794809999177,1
102,11,2,2,0.6,1,1.10967350000283,0
103,66,2,3,0.95,2,1.18850839999504,1
104,22,2,1,0.825,1,1.24785899999551,0
105,1,2,1,0.875,1,1.12050790002104,0
106,45,2,3,0.95,2,1.59070680005243,1
107,43,2,1,1.025,2,1.55351510003675,1
108,55,2,1,0.9,1,1.37434009998105,0
109,56,2,2,0.65,1,1.49082459998317,0
110,86,2,2,0.7,1,1.54626410000492,0
111,195,1,1,0.99,1,1.3216161999735,0
112,154,1,2,0.99,1,1.31181919999653,0
113,150,1,1,1.2,2,1.38249260000885,1
114,185,1,3,0.99,1,1.33740280003985,0
115,135,1,1,1.1,1,1.27119599998696,0
116,147,1,1,1.15,2,1.17527909995988,1
117,169,1,2,1.2,2,1.24359099997673,1
118,173,1,3,1.2,2,1.28482440003427,1
119,159,1,1,1.125,1,1.01741169998422,0
120,175,1,2,1.1,1,1.25409400003264,0
121,176,1,3,1.1,1,1.27849309996236,0
122,141,1,1,1.15,2,1.30285970005207,1
123,161,1,3,1.15,2,1.25359199999366,1
124,112,1,2,1.15,1,1.43032600003062,0
125,189,1,1,1.125,2,1.43959570000879,1
126,196,1,2,1.175,1,1.36084129998926,0
127,211,1,5,0.5,1,1.28540890000295,0
128,190,1,2,1.25,2,1.26072979997844,1
129,165,1,1,1.075,1,1.33353699999861,0
130,191,1,3,1.125,1,1.4908962000045,0
131,193,1,2,1.2,1,1.36999450001167,0
132,153,1,1,1.1,1,1.23057800001698,0
133,139,1,2,1.25,2,1.359968499979,1
134,145,1,2,1.2,2,1.29219490004471,1
135,146,1,3,1.15,1,1.45192459999816,0
136,207,1,4,1.5,2,1.22899850003887,1
137,220,1,5,0.5,1,1.3903703999822,0
138,194,1,3,1.175,1,1.41789530002279,0
139,113,1,3,1.25,2,1.31647499999963,1
140,123,1,1,1.125,2,1.41774639999494,1
141,124,1,2,1.175,1,1.42816980002681,0
142,156,1,1,1.1,1,1.57441639999161,0
143,180,1,1,1.125,1,1.33829719998175,0
144,136,1,2,1.175,2,1.27962380001554,1
145,119,1,3,1.25,2,1.35174080001889,1
146,178,1,2,1.025,1,1.06858259998262,0
147,188,1,3,1.175,2,1.24440570001025,1
148,137,1,3,1.01,1,1.18188160000136,0
149,186,1,1,1.15,2,1.16927620000206,1
150,116,1,3,1.05,1,1.25326890003635,0
151,209,1,4,1.5,2,1.1339720999822,1
152,212,1,5,0.5,1,1.25126769999042,0
153,160,1,2,1.05,2,1.25983230001293,1
154,167,1,3,1.25,2,1.20465059997514,1
155,174,1,1,1.15,2,1.27141929999925,1
156,183,1,1,1.1,1,1.25545659998897,0
157,187,1,2,0.8,1,1.27193650003755,0
158,202,1,4,1.5,2,1.24831830000039,1
159,127,1,2,0.85,1,1.25696299999254,0
160,216,1,5,0.5,1,1.45753199997125,0
161,133,1,2,0.875,1,1.13013959996169,0
162,149,1,3,1.15,1,1.35159189999104,0
163,164,1,3,1.175,2,1.29241320001893,1
164,218,1,5,0.5,1,1.34729199996218,0
165,131,1,3,1.15,2,1.296602300019,1
166,198,1,1,1.125,1,1.28776209999342,0
167,120,1,1,1.15,2,1.34305670001777,1
168,179,1,3,1.075,1,1.31657770002494,0
169,210,1,4,1.5,2,1.25060610001674,1
170,152,1,3,1.125,1,1.22741960000712,0
171,130,1,2,1.4,2,1.20519850001438,1
172,201,1,4,1.5,2,1.40016779996222,1
173,192,1,1,1.125,1,1.2985676000244,0
174,205,1,4,1.5,2,1.32941470004153,1
175,128,1,3,1.175,2,2.12729199999012,1
176,121,1,2,1.35,2,1.26153020001948,1
177,111,1,1,1.125,1,1.47019099997124,0
178,215,1,5,0.5,1,1.97399700002279,0
179,203,1,4,1.5,2,1.38646249996964,1
180,132,1,1,1.125,1,1.41384689998813,0
181,171,1,1,1.125,1,1.40728150005452,0
182,126,1,1,1.125,1,1.43412109999917,0
183,213,1,5,0.5,1,1.41957580001326,0
184,206,1,4,1.5,2,1.44593170000007,1
185,162,1,1,1.125,1,1.40706519997912,0
186,140,1,3,1.175,1,1.48190379998414,0
187,166,1,2,1.05,1,1.01729709998472,0
188,114,1,1,1.125,1,1.28323970001657,0
189,143,1,3,1.25,2,1.274774599995,1
190,182,1,3,1.1,1,1.0745644000126,0
191,200,1,3,1.2,1,1.55487569997786,0
192,168,1,1,1.125,1,1.51948079996509,0
193,129,1,1,1.125,1,1.34113909996813,0
194,151,1,2,1.3,2,1.4510394000099,1
195,214,1,5,0.5,1,1.33976810000604,0
196,118,1,2,1.15,1,1.15296380000655,0
197,158,1,3,1.3,2,1.27766610000981,1
198,157,1,2,1.15,1,1.3815238000243,0
199,172,1,2,1.2,2,1.33744569995906,1
200,184,1,2,1.2,2,1.24651409999933,1
201,177,1,1,1.125,1,1.30368920002365,0
202,197,1,3,1.25,2,1.31846330000553,1
203,170,1,3,1.1,1,1.25248030002695,0
204,148,1,2,1.175,2,1.2497568000108,1
205,138,1,1,1.15,2,1.25421009998536,1
206,181,1,2,1.15,2,1.05448709998745,1
207,122,1,3,1.2,1,1.1991713999887,0
208,204,1,4,1.5,2,1.1383552000043,1
209,199,1,2,1.075,1,1.28734620002797,0
210,125,1,3,1.3,2,1.27002469997387,1
211,155,1,3,1.25,2,1.30244060000405,1
212,163,1,2,1.1,1,1.35687690001214,0
213,144,1,1,1.125,1,1.31343189999461,0
214,142,1,2,1.125,1,1.40797940001357,0
215,208,1,4,1.5,2,1.33121999999275,1
216,219,1,5,0.5,1,1.29650029999902,0
217,117,1,1,1.15,1,1.41597349999938,0
218,217,1,5,0.5,1,1.29777449998073,0
219,134,1,3,1.2,1,1.32879220001632,0
220,115,1,2,1.15,1,1.31857619999209,0
