PresOrder,TrialNumber,Background,StairNum,CurrSize,Response,ReactionTIme,Stair_Update
1,4,2,1,0.99,2,0.782596700002614,1
2,110,2,5,0.5,1,0.403861300001154,0
3,97,2,4,1.5,2,0.283756199998606,1
4,6,2,3,0.99,1,0.744008899993787,0
5,75,2,3,1.2,2,0.561355400001048,1
6,96,2,4,1.5,2,2.73016244210885,1
7,40,2,1,0.75,1,0.672620800003642,0
8,99,2,4,1.5,2,0.355517999996664,1
9,84,2,3,1.1,2,0.602450999998837,1
10,60,2,3,1.025,2,0.411037000005308,1
11,101,2,5,0.5,1,0.35502550000092,0
12,48,2,3,0.975,2,0.322957700002007,1
13,86,2,2,0.99,2,0.329556099997717,1
14,102,2,5,0.5,1,0.277312900005199,0
15,38,2,2,0.75,1,0.41998269999749,0
16,35,2,2,0.9,2,0.376511700000265,1
17,41,2,2,0.825,1,0.306120200002624,0
18,67,2,1,0.9,1,0.737910800002282,0
19,94,2,4,1.5,2,0.417573599996103,1
20,109,2,5,0.5,1,0.40460929999972,0
21,28,2,1,0.975,2,0.357175900004222,1
22,1,2,1,0.925,1,0.42272889999731,0
23,57,2,3,0.8,1,0.347750900000392,0
24,20,2,2,0.875,1,0.422400099996594,0
25,85,2,1,0.95,2,0.534065600004396,1
26,98,2,4,1.5,2,0.377985800005263,1
27,26,2,2,0.9,1,0.315419099999417,0
28,78,2,3,0.9,1,0.354641799996898,0
29,64,2,1,0.925,1,0.390873399999691,0
30,9,2,3,0.95,2,0.384891100002278,1
31,61,2,1,0.95,1,0.446000700001605,0
32,56,2,2,0.975,1,0.481862000000547,0
33,30,2,3,0.925,1,0.37271669999609,0
34,59,2,2,1.15,2,0.437551600000006,1
35,90,2,3,0.95,1,0.489322399997036,0
36,47,2,2,1.05,2,0.421906300005503,1
37,104,2,5,0.5,1,0.315218100004131,0
38,68,2,2,0.975,2,0.356187600002158,1
39,36,2,3,1.15,2,0.352149700003793,1
40,52,2,1,0.99,1,0.514926900003047,0
41,10,2,1,1.175,2,0.301756100001512,1
42,105,2,5,0.5,1,0.329167400006554,0
43,89,2,2,1.125,2,0.308595400005288,1
44,108,2,5,0.5,1,0.339490299993486,0
45,7,2,1,1.15,2,0.286926100001438,1
46,62,2,2,0.925,1,0.339305100002093,0
47,70,2,1,1.1,2,0.380436599996756,1
48,51,2,3,0.825,1,0.359159799998451,0
49,81,2,3,0.99,2,0.332750000001397,1
50,5,2,2,0.95,2,0.36067219999677,1
51,25,2,1,1.05,1,0.266634499996144,0
52,80,2,2,0.75,1,0.370342599999276,0
53,15,2,3,0.875,1,0.530620400000771,0
54,42,2,3,0.975,1,0.575906700003543,0
55,34,2,1,1.3,2,0.330103399996005,1
56,93,2,4,1.5,2,0.341986500003259,1
57,24,2,3,1.125,2,0.511583300001803,1
58,39,2,3,1.075,2,0.45078569999896,1
59,77,2,2,1.075,2,0.525513599997794,1
60,14,2,2,0.925,1,0.344059000002744,0
61,33,2,3,0.975,1,0.387667399998463,0
62,49,2,1,0.75,1,0.348442499998782,0
63,11,2,2,0.95,1,0.481371299996681,0
64,54,2,3,1.01,2,0.420555299999251,1
65,50,2,2,1.1,2,0.474025999996229,1
66,65,2,2,0.975,1,0.478785600003903,0
67,44,2,2,1.125,2,0.377970699999423,1
68,43,2,1,1.25,2,0.353212299996812,1
69,100,2,4,1.5,2,0.360234200001287,1
70,46,2,1,1.2,2,0.526728200005891,1
71,87,2,3,0.975,1,0.389443899999605,0
72,69,2,3,0.975,1,0.43397069999628,0
73,103,2,5,0.5,1,0.390627799999493,0
74,12,2,3,1.01,2,0.455773599998793,1
75,72,2,3,0.975,2,0.616860900001484,1
76,16,2,1,1.05,2,0.466127199993934,1
77,22,2,1,0.825,1,0.298759400000563,0
78,32,2,2,1.025,2,0.479563300003065,1
79,58,2,1,0.975,1,0.308270399997127,0
80,29,2,2,0.95,2,0.527714700001525,1
81,66,2,3,0.925,1,0.318786999996519,0
82,63,2,3,1.025,2,0.352742300005048,1
83,45,2,3,0.95,1,0.45276329999615,0
84,13,2,1,1.125,2,0.39339750000363,1
85,92,2,4,1.5,2,0.542619799998647,1
86,27,2,3,0.99,1,0.46690540000418,0
87,18,2,3,1.01,1,0.631854300001578,0
88,95,2,4,1.5,2,0.490972100000363,1
89,76,2,1,1.025,2,0.739055900005042,1
90,88,2,1,0.875,1,0.43874670000514,0
91,31,2,1,1.01,2,6.08783719999337,1
92,19,2,1,0.975,2,0.453842200004146,1
93,21,2,3,1.05,2,0.459105300004012,1
94,79,2,1,0.975,2,0.638629399996717,1
95,2,2,2,0.825,1,0.326236799999606,0
96,23,2,2,0.85,1,0.409226900002977,0
97,82,2,1,0.975,1,0.455555400003504,0
98,37,2,1,0.875,2,0.473351799999364,1
99,17,2,2,1.01,2,0.396561699999438,1
100,73,2,1,0.75,1,0.555369699999574,0
101,55,2,1,0.8,2,0.480066100004478,1
102,74,2,2,0.925,2,0.385430800000904,1
103,3,2,3,1.05,2,0.64187690000108,1
104,71,2,2,0.85,1,0.376573000001372,0
105,83,2,2,0.875,1,0.532040300000517,0
106,106,2,5,0.5,2,0.343910100003995,1
107,107,2,5,0.5,1,0.729277999998885,0
108,53,2,2,1.01,2,0.407289899994794,1
109,91,2,4,1.5,2,0.396513299994695,1
110,8,2,2,0.9,1,0.410532900001272,0
111,143,1,3,0.99,2,0.715621199997258,1
112,116,1,3,0.75,1,0.422010800000862,0
113,147,1,1,0.99,1,0.374855399997614,0
114,134,1,3,0.9,1,0.464254400001664,0
115,191,1,3,0.975,1,0.366639699997904,0
116,182,1,3,1.1,2,0.429460999999719,1
117,171,1,1,1.2,1,0.412841199999093,0
118,204,1,4,1.5,2,0.29143699999986,1
119,194,1,3,1.01,1,0.441140099996119,0
120,195,1,1,1.35,2,0.404559099995822,1
121,146,1,3,1.05,2,0.361661699993419,1
122,218,1,5,0.5,1,0.442853799999284,0
123,112,1,2,0.99,1,0.510058899999422,0
124,126,1,1,1.25,2,0.431855499999074,1
125,115,1,2,1.2,1,0.565957599996182,0
126,205,1,4,1.5,2,0.377568399999291,1
127,199,1,2,1.35,2,0.473332599998685,1
128,176,1,3,1.01,1,0.430033199998434,0
129,178,1,2,1.25,2,0.57170419999602,1
130,217,1,5,0.5,1,0.345135600000503,0
131,212,1,5,0.5,1,0.405238600003941,0
132,167,1,3,1.075,2,0.376401699999406,1
133,206,1,4,1.5,2,0.432853500002238,1
134,114,1,1,1.2,2,0.428592099997331,1
135,156,1,1,1.1,1,0.356097099996987,0
136,137,1,3,1.025,1,0.650365500005137,0
137,180,1,1,1.15,2,0.453973399999086,1
138,214,1,5,0.5,1,0.468051099996956,0
139,111,1,1,1.075,2,0.370035499996447,1
140,188,1,3,1.05,1,0.454881899997417,0
141,210,1,4,1.5,2,0.391319499998644,1
142,219,1,5,0.5,1,0.364638200000627,0
143,163,1,2,1.2,2,0.41205820000323,1
144,216,1,5,0.5,1,0.34835000000021,0
145,128,1,3,1.175,2,0.420545000000857,1
146,119,1,3,1.15,2,0.346540900005493,1
147,168,1,1,0.825,1,0.429908199999772,0
148,197,1,3,1.125,2,0.356017200007045,1
149,130,1,2,1.1,2,0.451513299994986,1
150,144,1,1,0.85,1,0.35490949999803,0
151,189,1,1,0.9,1,0.435588499996811,0
152,132,1,1,1.05,2,0.424651399996947,1
153,183,1,1,1.025,2,0.386628899999778,1
154,208,1,4,1.5,2,0.430694399998174,1
155,154,1,2,1.025,1,0.441243200002646,0
156,131,1,3,1.05,2,0.415869499993278,1
157,213,1,5,0.5,1,0.457850800004962,0
158,174,1,1,0.975,2,0.446635734588199,1
159,193,1,2,1.05,1,0.308761100000993,0
160,155,1,3,1.025,1,1.3029899999965,0
161,196,1,2,1.075,1,0.523459599993657,0
162,166,1,2,1.1,2,0.797760200002813,1
163,198,1,1,0.65,1,0.462339199999406,0
164,159,1,1,0.7,1,0.423871699997107,0
165,175,1,2,1.1,2,0.39032849999785,1
166,200,1,3,1.025,1,0.291439000000537,0
167,161,1,3,1.05,1,0.360549700002593,0
168,192,1,1,0.75,1,0.510444699997606,0
169,135,1,1,0.975,1,0.556497099998523,0
170,211,1,5,0.5,1,0.645699599997897,0
171,150,1,1,1.3,2,0.403392699998221,1
172,179,1,3,1.075,1,0.453617799998028,0
173,201,1,4,1.5,2,0.386600600002566,1
174,177,1,1,1.25,2,0.414436899998691,1
175,185,1,3,1.25,2,0.835478599998169,1
176,181,1,2,1.075,1,0.343732900000759,0
177,152,1,3,1.2,1,0.69525469999644,0
178,141,1,1,1.01,1,0.437261500002933,0
179,187,1,2,1.1,2,0.394858600004227,1
180,173,1,3,1.4,2,0.456328899999789,1
181,158,1,3,1.35,2,0.438070500000322,1
182,207,1,4,1.5,2,0.422803000001295,1
183,121,1,2,1.075,1,0.359914100001333,0
184,170,1,3,1.35,2,0.601729800000612,1
185,165,1,1,1.05,1,0.257062999997288,0
186,162,1,1,1.35,2,0.42850599999656,1
187,120,1,1,1.3,1,0.454144299998006,0
188,124,1,2,1.075,1,0.509995599997637,0
189,151,1,2,1.1,2,0.586549799998465,1
190,160,1,2,1.075,1,0.342086999997264,0
191,142,1,2,1.1,2,0.42899110000144,1
192,138,1,1,1.45,2,0.473802100001194,1
193,133,1,2,1.075,1,0.490165700000944,0
194,203,1,4,1.5,2,0.373626599997806,1
195,127,1,2,1.075,1,0.297092000000703,0
196,123,1,1,1.45,2,0.386346300001605,1
197,172,1,2,1.1,1,0.724438699995517,0
198,164,1,3,0.85,1,0.493539199997031,0
199,139,1,2,1.1,1,0.512749499997881,0
200,220,1,5,0.5,1,0.405969799998275,0
201,186,1,1,0.75,1,0.598632799999905,0
202,118,1,2,1.1,1,1.0366309999954,0
203,153,1,1,1.35,1,0.479484899995441,0
204,136,1,2,1.125,1,0.516723699998693,0
205,140,1,3,1.25,2,1.21938059999957,1
206,190,1,2,1.35,2,0.514697400001751,1
207,117,1,1,1.5,2,0.528846499997599,1
208,125,1,3,1.175,1,0.447637699995539,0
209,113,1,3,1.4,2,0.430997000003117,1
210,148,1,2,1.35,2,0.484625999997661,1
211,184,1,2,1.3,2,0.456710999998904,1
212,157,1,2,1.15,1,0.439867399996729,0
213,122,1,3,0.825,1,0.499823699996341,0
214,209,1,4,1.5,2,0.6355257000032,1
215,149,1,3,1.3,2,0.516820800003188,1
216,202,1,4,1.5,2,0.479930500005139,1
217,215,1,5,0.5,1,0.37234829999943,0
218,169,1,2,1.4,2,0.479513199999928,1
219,129,1,1,0.7,1,0.417725200000859,0
220,145,1,2,1.35,2,0.448907199999667,1
