PresOrder,TrialNumber,Background,StairNum,CurrSize,Response,ReactionTIme,Stair_Update
1,104,1,5,0.5,1,0.439205800001218,0
2,70,1,1,0.99,2,0.654112200001691,1
3,52,1,1,0.75,1,0.442585799999506,0
4,63,1,3,0.99,2,0.590686200001073,1
5,81,1,3,0.75,1,0.440536300000531,0
6,98,1,4,1.5,2,0.411368900000525,1
7,66,1,3,0.9,1,0.594506699999329,0
8,103,1,5,0.5,1,0.584431400002359,0
9,37,1,1,0.9,1,0.814249500002916,0
10,83,1,2,0.99,2,1.17233449999912,1
11,22,1,1,0.975,2,0.521397999997134,1
12,95,1,4,1.5,2,0.565819899999042,1
13,21,1,3,0.975,1,0.423628200001986,0
14,24,1,3,1.1,2,0.568944500002544,1
15,77,1,2,0.75,1,0.542802899999515,0
16,82,1,1,0.925,1,0.51711989999967,0
17,7,1,1,0.95,1,0.571732400003384,0
18,53,1,2,0.9,1,0.602573899999697,0
19,42,1,3,1.01,2,0.633678499998496,1
20,48,1,3,0.975,1,0.660810299999866,0
21,16,1,1,0.975,1,0.581344400001399,0
22,28,1,1,1.05,2,0.502732100001595,1
23,33,1,3,0.99,1,0.542034099999,0
24,3,1,3,1.025,1,0.578062700002192,0
25,17,1,2,0.975,1,0.605785499999911,0
26,110,1,5,0.5,1,0.71580510000058,0
27,73,1,1,1.01,2,0.61655950000204,1
28,34,1,1,0.975,1,0.349091600000975,0
29,84,1,3,1.2,1,0.660655200001202,0
30,76,1,1,1.01,1,0.537895199999184,0
31,99,1,4,1.5,2,0.59432260000176,1
32,50,1,2,1.1,1,0.506432099999074,0
33,30,1,3,0.7,1,0.53439090000029,0
34,4,1,1,1.175,2,0.520472100000916,1
35,89,1,2,1.25,2,0.61935910000102,1
36,59,1,2,1.15,2,0.603347300002497,1
37,75,1,3,1.35,2,0.555676599997241,1
38,94,1,4,1.5,2,0.57255730000179,1
39,108,1,5,0.5,1,0.567122100001143,0
40,1,1,1,1.175,1,1.00379679999969,0
41,14,1,2,1.1,1,0.935912900000403,0
42,64,1,1,1.45,2,0.920359100000496,1
43,8,1,2,1.125,2,1.11221460000161,1
44,56,1,2,1.1,2,0.914407299998857,1
45,90,1,3,1.45,2,0.556410200002574,1
46,74,1,2,0.75,1,0.526376800000435,0
47,26,1,2,0.8,1,0.562160800000129,0
48,51,1,3,1.25,2,1.90635079999993,1
49,6,1,3,1.4,2,0.737307600000349,1
50,39,1,3,1.2,1,0.791820799997367,0
51,92,1,4,1.5,2,0.585337500000605,1
52,25,1,1,1.4,2,0.526036900002509,1
53,32,1,2,1.01,1,0.506727399999363,0
54,29,1,2,1.25,2,0.608122600002389,1
55,109,1,5,0.5,1,0.562238599999546,0
56,72,1,3,0.75,1,0.632143200000428,0
57,61,1,1,1.4,2,0.609855000002426,1
58,100,1,4,1.5,2,0.716611100000591,1
59,93,1,4,1.5,2,0.848845900000015,1
60,87,1,3,1.2,1,0.629455199999938,0
61,80,1,2,1.075,1,0.63282210000034,0
62,49,1,1,0.7,1,0.562118800000462,0
63,38,1,2,1.15,2,0.607256999999663,1
64,62,1,2,1.075,1,0.622342699996807,0
65,20,1,2,1.125,1,0.667857199998252,0
66,57,1,3,1.2,2,0.577445399998396,1
67,68,1,2,1.2,2,0.67611240000042,1
68,106,1,5,0.5,1,0.621802800000296,0
69,2,1,2,1.175,2,0.611219900001743,1
70,60,1,3,1.5,2,0.628554800001439,1
71,58,1,1,1.3,2,0.625196299999516,1
72,69,1,3,0.75,1,0.618022800001199,0
73,85,1,1,1.25,2,0.631004499999108,1
74,46,1,1,0.8,1,0.93157169999904,0
75,101,1,5,0.5,1,1.11333260000174,0
76,5,1,2,1.1,1,1.17379470000014,0
77,18,1,3,1.5,2,0.64714129999993,1
78,9,1,3,1.45,2,0.606180999999197,1
79,35,1,2,1.125,1,0.536550700002408,0
80,88,1,1,1.075,1,1.18649550000191,0
81,12,1,3,0.825,1,0.613821999999345,0
82,96,1,4,1.5,2,0.563570000002073,1
83,54,1,3,1.175,1,1.44214180000199,0
84,65,1,2,1.15,1,0.7007995999993,0
85,44,1,2,1.25,2,0.60781230000066,1
86,10,1,1,1.35,2,0.640474800002266,1
87,105,1,5,0.5,1,0.584135799999785,0
88,31,1,1,1.3,2,0.598755799997889,1
89,27,1,3,1.175,2,0.682775100001891,1
90,40,1,1,0.8,1,0.617672299998958,0
91,79,1,1,1.15,2,0.557602700002462,1
92,102,1,5,0.5,1,0.570625000000291,0
93,15,1,3,1.45,2,0.559710900000937,1
94,47,1,2,1.25,2,0.845732800000405,1
95,107,1,5,0.5,1,0.546676699999807,0
96,19,1,1,1.1,2,0.61905409999963,1
97,67,1,1,1.075,1,0.536738099999639,0
98,45,1,3,0.875,1,0.583729499998299,0
99,11,1,2,1.075,1,0.580056099999638,0
100,78,1,3,1.4,2,1.36632499999905,1
101,41,1,2,1.175,1,0.554689900000085,0
102,43,1,1,0.85,1,0.693785799998295,0
103,36,1,3,1.01,2,0.581317100000888,1
104,13,1,1,1.2,2,0.590580899999622,1
105,86,1,2,1.3,2,0.60064340000099,1
106,55,1,1,1.15,2,0.68034869999974,1
107,91,1,4,1.5,2,0.568134299999656,1
108,23,1,2,1.25,2,0.646024599998782,1
109,97,1,4,1.5,2,0.568596199998865,1
110,71,1,2,1.05,1,0.576903099998162,0
111,175,2,2,0.99,1,0.661701499997434,0
112,158,2,3,0.99,1,0.473062600001867,0
113,181,2,2,1.2,2,0.465961000001698,1
114,185,2,3,1.2,2,0.527132800001709,1
115,195,2,1,0.99,1,0.403433600000426,0
116,153,2,1,1.2,2,0.469690800000535,1
117,162,2,1,1.1,2,0.421296299999085,1
118,184,2,2,1.1,2,0.52194480000253,1
119,193,2,2,1.025,2,0.456384200002503,1
120,205,2,4,1.5,2,0.425162800001999,1
121,178,2,2,0.975,1,0.435697400000208,0
122,173,2,3,1.1,2,0.49613970000064,1
123,214,2,5,0.5,1,0.469102499999281,0
124,165,2,1,1.025,2,0.500830199998745,1
125,135,2,1,0.975,2,0.614634699999442,1
126,211,2,5,0.5,1,0.482420800002728,0
127,141,2,1,0.8,1,0.483695999999327,0
128,129,2,1,0.9,1,0.500630799997452,0
129,189,2,1,0.95,1,0.53555889999916,0
130,120,2,1,0.99,2,0.776605600000039,1
131,177,2,1,0.925,1,0.453474500001903,0
132,133,2,2,1.01,2,0.483232100003079,1
133,118,2,2,0.975,1,0.499261099997966,0
134,164,2,3,1.025,2,0.409634500003449,1
135,154,2,2,0.99,1,0.507514900000388,0
136,149,2,3,0.975,1,0.561502399999881,0
137,215,2,5,0.5,1,0.534934199997224,0
138,151,2,2,1.01,2,0.564963199998601,1
139,144,2,1,0.975,2,0.753530199999659,1
140,179,2,3,1.01,2,0.551112200002535,1
141,198,2,1,0.95,2,0.508151300000463,1
142,157,2,2,0.99,1,0.52445500000249,0
143,160,2,2,1.01,2,0.821385100000043,1
144,201,2,4,1.5,2,0.637628599997697,1
145,143,2,3,0.975,1,0.470065400000749,0
146,131,2,3,0.99,1,0.630779299997812,0
147,212,2,5,0.5,1,0.440256999998383,0
148,150,2,1,0.85,1,0.466031300002214,0
149,207,2,4,1.5,2,0.508743499998673,1
150,186,2,1,0.875,1,0.469314300000406,0
151,183,2,1,0.975,2,0.604061299996829,1
152,200,2,3,1.01,1,0.438843200001429,0
153,142,2,2,0.99,1,0.557479400002194,0
154,121,2,2,1.01,1,0.563794300000154,0
155,117,2,1,0.95,1,0.550225099999807,0
156,134,2,3,1.025,2,0.570625800002745,1
157,159,2,1,0.975,2,0.655936300001486,1
158,172,2,2,1.01,2,0.661647799999628,1
159,217,2,5,0.5,1,0.447258500000316,0
160,209,2,4,1.5,2,0.504591799999616,1
161,113,2,3,1.025,2,0.633407400000578,1
162,152,2,3,1.01,1,0.612755000001926,0
163,124,2,2,1.01,1,0.599318700002186,0
164,155,2,3,1.025,2,0.482081899997866,1
165,127,2,2,1.025,2,0.551793200000247,1
166,169,2,2,1.025,2,0.502274399997987,1
167,190,2,2,1.01,2,0.557236799999373,1
168,146,2,3,1.01,2,0.483875799996895,1
169,111,2,1,0.95,1,0.53354390000095,0
170,171,2,1,0.95,1,0.531503799997154,0
171,138,2,1,0.95,2,0.767919099998835,1
172,199,2,2,1.01,1,0.648803599997336,0
173,119,2,3,0.99,2,0.586148599999433,1
174,112,2,2,0.99,1,0.528880800000479,0
175,208,2,4,1.5,2,0.552396800001588,1
176,192,2,1,0.975,2,0.604806899998948,1
177,196,2,2,1.025,2,0.548325399999158,1
178,202,2,4,1.5,2,0.495752200000425,1
179,147,2,1,0.975,2,0.871825900001568,1
180,128,2,3,0.925,1,0.538827599997603,0
181,116,2,3,0.95,1,0.815770000001066,0
182,188,2,3,0.99,1,0.732429700001376,0
183,122,2,3,0.99,2,0.527229899998929,1
184,125,2,3,0.9,1,0.569254899997759,0
185,218,2,5,0.5,1,0.487254399999074,0
186,203,2,4,1.5,2,0.509665800000221,1
187,180,2,1,0.925,1,0.589904000000388,0
188,114,2,1,0.95,1,0.556357900000876,0
189,123,2,1,0.95,1,0.55498340000122,0
190,182,2,3,1.075,2,0.479710600000544,1
191,213,2,5,0.5,1,0.542436699997779,0
192,174,2,1,0.95,2,0.56213050000224,1
193,163,2,2,0.99,2,0.648374299998977,1
194,191,2,3,0.925,1,0.482944600000337,0
195,156,2,1,0.975,2,0.587401000000682,1
196,161,2,3,1.025,2,0.508868299999449,1
197,210,2,4,1.5,2,0.556727099999989,1
198,132,2,1,0.975,2,0.723957799997152,1
199,136,2,2,0.99,2,0.673796799997945,1
200,139,2,2,0.9,1,0.527442200000223,0
201,216,2,5,0.5,1,0.559881799999857,0
202,137,2,3,0.99,2,0.572023400000035,1
203,145,2,2,0.925,2,0.57746959999713,1
204,220,2,5,0.5,1,0.46346419999827,0
205,197,2,3,0.925,2,0.509454099999857,1
206,176,2,3,0.825,1,0.685360799998307,0
207,194,2,3,0.85,1,0.532967599996482,0
208,126,2,1,0.95,2,0.741047899999103,1
209,140,2,3,0.875,1,0.500618699999904,0
210,130,2,2,0.75,1,0.555537899999763,0
211,187,2,2,0.75,1,0.523656699999265,0
212,206,2,4,1.5,2,0.514501999998174,1
213,170,2,3,0.925,1,0.572914600001241,0
214,204,2,4,1.5,2,0.467001299999538,1
215,166,2,2,0.8,1,0.449641399998654,0
216,167,2,3,0.95,1,0.570878099999391,0
217,115,2,2,0.85,1,0.595237800000177,0
218,219,2,5,0.5,1,0.484558600001037,0
219,168,2,1,0.925,2,0.512990300001547,1
220,148,2,2,1.125,2,0.531433199997991,1
