PresOrder,TrialNumber,Background,StairNum,CurrSize,Response,ReactionTIme,Stair_Update
1,96,2,4,1.5,2,2.50955486728344,1
2,94,2,4,1.5,2,3.72792148184089,1
3,15,2,3,0.99,2,1.91909647820285,1
4,33,2,3,0.75,1,1.74540939999861,0
5,1,2,1,0.99,2,3.1715671363927,1
6,93,2,4,1.5,2,1.35581332186121,1
7,67,2,1,0.75,1,1.30893547821324,0
8,87,2,3,0.9,1,1.41018082726805,0
9,105,2,5,0.5,1,1.34515484001895,0
10,22,2,1,0.9,2,1.44972602545749,1
11,46,2,1,0.825,1,1.38028696727997,0
12,56,2,2,0.99,2,1.55204356909962,1
13,84,2,3,0.975,2,1.49310758002684,1
14,5,2,2,0.75,1,1.35093546910502,0
15,37,2,1,0.875,2,1.96671078001964,1
16,4,2,1,0.85,1,1.37482875456044,0
17,65,2,2,0.9,2,1.77748876548139,1
18,55,2,1,0.875,1,1.33877170000051,0
19,24,2,3,0.925,2,1.53362888003176,1
20,48,2,3,0.9,1,1.36469511092582,0
21,40,2,1,0.925,2,1.43156759275007,1
22,81,2,3,0.925,1,1.4566720091243,0
23,44,2,2,0.825,1,1.33075229274982,0
24,14,2,2,0.875,1,1.26901606547472,0
25,72,2,3,0.95,2,1.36469750730612,1
26,45,2,3,0.95,2,1.50620432184951,1
27,20,2,2,0.9,2,1.58976901273127,1
28,57,2,3,0.925,1,1.04205316366279,0
29,83,2,2,0.875,1,1.12637915274536,0
30,26,2,2,0.9,2,1.30031629999576,1
31,32,2,2,0.875,1,1.28198586728831,0
32,80,2,2,0.9,2,1.10343052184908,1
33,38,2,2,0.875,1,1.48978418365004,0
34,101,2,5,0.5,1,1.42990691274463,0
35,59,2,2,0.9,2,1.24032279998937,1
36,69,2,3,0.95,2,1.27897341092466,1
37,36,2,3,0.925,2,1.31233477820933,1
38,79,2,1,0.9,2,1.11494125274476,1
39,66,2,3,0.9,1,1.30368600910879,0
40,10,2,1,0.875,1,0.98981345455104,0
41,106,2,5,0.5,1,1.26430264000373,0
42,99,2,4,1.5,2,1.35759789636359,1
43,54,2,3,0.9,2,1.53447555455205,1
44,21,2,3,0.8,1,1.3179900109244,0
45,91,2,4,1.5,2,1.47327791641874,1
46,63,2,3,0.8,1,1.31244490000245,0
47,60,2,3,1.01,2,1.40700851274596,1
48,86,2,2,0.875,1,1.14884116547182,0
49,6,2,3,0.85,1,1.23078233819979,0
50,8,2,2,0.875,1,1.3259048218606,0
51,3,2,3,0.9,1,1.51155576728343,0
52,28,2,1,0.9,2,1.55506856547436,1
53,61,2,1,0.875,1,1.23861929457053,0
54,75,2,3,0.9,1,1.29623839455599,0
55,77,2,2,0.9,2,1.43121379638615,1
56,104,2,5,0.5,1,1.0538283999922,0
57,29,2,2,0.875,2,1.39154055454128,1
58,47,2,2,0.875,1,1.48809143820836,0
59,19,2,1,0.875,2,1.70266498366254,1
60,23,2,2,0.875,1,1.17839629275841,0
61,73,2,1,0.85,1,1.30404709637514,0
62,31,2,1,0.9,2,1.33641586909653,1
63,85,2,1,0.85,2,1.19705539455754,1
64,100,2,4,1.5,2,0.988629480023519,1
65,17,2,2,0.875,1,1.20390295093239,0
66,41,2,2,0.875,2,1.43556986546901,1
67,102,2,5,0.5,1,1.23982062365394,0
68,90,2,3,0.95,2,2.42208858003141,1
69,110,2,5,0.5,1,1.14293729455676,0
70,25,2,1,0.8,1,1.11723981093382,0
71,30,2,3,0.925,1,1.78645036365197,0
72,39,2,3,0.925,2,2.20862747821957,1
73,76,2,1,0.95,1,1.44156078001834,0
74,7,2,1,1.125,2,1.42249335275847,1
75,34,2,1,1.075,2,1.40809792366053,1
76,18,2,3,0.9,1,1.41152914002305,0
77,62,2,2,0.875,1,1.46289071274805,0
78,95,2,4,1.5,2,2.28447420911107,1
79,71,2,2,0.875,1,1.30714441092277,0
80,52,2,1,0.7,1,1.44278276548721,0
81,42,2,3,0.9,1,1.52541593820206,0
82,103,2,5,0.5,1,1.46618892364495,0
83,107,2,5,0.5,1,1.41798181273043,0
84,13,2,1,1.025,2,1.59649386728415,1
85,2,2,2,0.875,1,1.29314302727289,0
86,35,2,2,0.875,1,1.27533878365648,0
87,16,2,1,0.75,1,1.32584983820561,0
88,97,2,4,1.5,2,1.79301833639329,1
89,11,2,2,0.875,2,1.44205592364597,1
90,27,2,3,0.95,2,1.38829307821288,1
91,58,2,1,0.9,2,1.54719681093411,1
92,74,2,2,0.875,1,1.3308314945607,0
93,12,2,3,0.9,2,2.23527208184532,1
94,109,2,5,0.5,1,1.25931615637091,0
95,49,2,1,0.85,1,1.28692783819861,0
96,51,2,3,0.9,1,1.30296226547216,0
97,78,2,3,0.9,1,1.31094218183716,0
98,108,2,5,0.5,1,1.28786296547332,0
99,70,2,1,0.85,1,1.26200542364677,0
100,43,2,1,0.9,2,2.21745414001634,1
101,50,2,2,0.875,1,1.26020178002364,0
102,92,2,4,1.5,2,1.78075150729273,1
103,98,2,4,1.5,2,1.68711725094181,1
104,89,2,2,0.875,1,1.22464513819432,0
105,68,2,2,0.9,1,1.21077710729151,0
106,82,2,1,0.85,1,1.25630392546009,0
107,88,2,1,0.9,2,1.55673601091257,1
108,9,2,3,0.9,2,1.74368068182957,1
109,53,2,2,0.9,1,1.24325259456236,0
110,64,2,1,0.875,1,1.32203829637729,0
111,209,1,4,1.5,2,2.36239613819635,1
112,175,1,2,0.99,1,1.67108622365049,0
113,198,1,1,0.99,2,1.67755912727444,1
114,201,1,4,1.5,2,2.05634899456345,1
115,164,1,3,0.99,1,1.26077662364696,0
116,152,1,3,1.2,2,2.32254829457088,1
117,210,1,4,1.5,2,1.40469325454615,1
118,161,1,3,1.1,2,1.2970828400139,1
119,174,1,1,0.75,1,1.25448590729502,0
120,189,1,1,0.9,1,1.28513757821929,0
121,219,1,5,0.5,1,1.24210310912167,0
122,171,1,1,0.975,1,1.27379992546048,0
123,200,1,3,1.025,2,1.58928835275583,1
124,141,1,1,1.1,2,1.46036662184633,1
125,207,1,4,1.5,2,1.28856882364198,1
126,186,1,1,1.01,1,1.3822640345752,0
127,188,1,3,0.975,1,1.34861436909705,0
128,162,1,1,1.05,2,1.290262209106,1
129,157,1,2,1.2,2,1.27918906547711,1
130,180,1,1,1.01,1,1.35641415276041,0
131,197,1,3,1.01,1,1.22134824001114,0
132,121,1,2,1.1,2,1.31560342546436,1
133,160,1,2,1.025,1,1.2933821654733,0
134,138,1,1,1.075,2,0.990173312748084,1
135,215,1,5,0.5,1,1.4241949654679,0
136,131,1,3,1.025,1,1.30588862545847,0
137,202,1,4,1.5,2,1.51489033819234,1
138,192,1,1,1.025,1,1.24809975635435,0
139,130,1,2,1.05,1,1.41194450730109,0
140,204,1,4,1.5,2,1.54207542365475,1
141,119,1,3,1.05,1,1.72071889818471,0
142,182,1,3,1.075,2,2.16333302184648,1
143,190,1,2,1.075,2,1.51123693819682,1
144,176,1,3,1.05,1,1.36232276547526,0
145,193,1,2,1.05,2,1.33898143820988,1
146,167,1,3,1.075,2,1.61865820911771,1
147,179,1,3,1.05,1,1.27831229819276,0
148,133,1,2,0.975,1,1.40608965094725,0
149,139,1,2,1.05,2,3.77168039999378,1
150,163,1,2,1.01,1,1.38201879999542,0
151,165,1,1,1.05,2,3.23050982726272,1
152,212,1,5,0.5,1,1.29189112546737,0
153,147,1,1,1.025,2,1.68582481273916,1
154,154,1,2,1.025,1,1.43897958364687,0
155,140,1,3,1.075,2,2.28986425454787,1
156,155,1,3,1.075,2,2.658764341817,1
157,208,1,4,1.5,2,1.2880823527521,1
158,191,1,3,1.05,1,1.35147968003002,0
159,211,1,5,0.5,1,1.33039283457038,0
160,127,1,2,1.05,2,1.33872479817364,1
161,169,1,2,1.05,1,1.42432359275699,0
162,126,1,1,0.9,1,1.33982802364335,0
163,199,1,2,1.075,2,1.32921992364572,1
164,115,1,2,1.025,1,1.32729908365582,0
165,113,1,3,1.075,2,1.44278595455398,1
166,137,1,3,1.05,2,1.73616308184864,1
167,142,1,2,1.075,2,1.53601472364971,1
168,177,1,1,1.1,2,1.87184539998998,1
169,145,1,2,1.025,1,1.30935298182885,0
170,217,1,5,0.5,1,1.78671020000183,0
171,183,1,1,1.01,1,1.46472948184237,0
172,195,1,1,1.01,2,1.48383089638082,1
173,168,1,1,0.875,1,1.13319680911081,0
174,159,1,1,1.15,2,1.38302569456573,1
175,185,1,3,1.05,2,1.27133824006887,1
176,120,1,1,0.925,1,1.10866282184725,0
177,118,1,2,1.05,2,1.0541564218438,1
178,156,1,1,1.01,1,1.23261269456998,0
179,122,1,3,0.975,2,1.00508659819025,1
180,218,1,5,0.5,2,1.62945192545885,1
181,136,1,2,1.05,2,1.43980345274031,1
182,117,1,1,1.01,1,1.02756033456535,0
183,181,1,2,1.05,2,1.4223955545458,1
184,220,1,5,0.5,1,1.12181120911555,0
185,150,1,1,1.025,1,1.17957269637554,0
186,216,1,5,0.5,1,1.25894073458039,0
187,114,1,1,1.05,2,1.22610508002981,1
188,153,1,1,1.025,2,1.19658030000573,1
189,214,1,5,0.5,1,1.24343546909222,0
190,123,1,1,1.01,1,1.10972208002931,0
191,158,1,3,0.8,1,1.27527609455865,0
192,203,1,4,1.5,2,1.4808083363896,1
193,194,1,3,0.825,1,1.1128263509454,0
194,213,1,5,0.5,1,1.26650894001068,0
195,132,1,1,1.01,1,1.2539498800179,0
196,129,1,1,1.05,2,1.6168835254648,1
197,173,1,3,0.85,1,1.25669780730095,0
198,134,1,3,0.875,1,1.24534436548129,0
199,166,1,2,1.05,2,1.34255672545987,1
200,151,1,2,1.05,2,1.32051155094814,1
201,172,1,2,1.05,1,1.29457722364168,0
202,124,1,2,1.05,2,1.40450363820128,1
203,206,1,4,1.5,2,1.31670118002512,1
204,149,1,3,1.175,2,1.87639240910357,1
205,144,1,1,1.01,1,1.25785602546239,0
206,148,1,2,1.05,1,1.16466676729033,0
207,135,1,1,1.01,2,1.75638973638706,1
208,111,1,1,1.05,2,1.90769009455107,1
209,143,1,3,1.025,1,2.07229245275084,0
210,125,1,3,1.025,1,1.45334566547535,0
211,116,1,3,1.025,1,2.20404568365484,0
212,184,1,2,1.025,1,2.26366569274978,0
213,146,1,3,1.075,2,1.65045288365218,1
214,196,1,2,1.025,2,1.38141438184539,1
215,205,1,4,1.5,2,1.45326288003707,1
216,178,1,2,0.99,1,1.26044955455291,0
217,112,1,2,1.025,1,1.28551280910324,0
218,128,1,3,1.05,2,2.20257458365813,1
219,187,1,2,1.025,2,2.08813565273886,1
220,170,1,3,1.025,2,1.64944617090805,1
