PresOrder,TrialNumber,Background,StairNum,CurrSize,Response,ReactionTIme,Stair_Update
1,94,1,4,1.5,2,0.602000200015027,1
2,88,1,1,0.99,1,0.551911099988502,0
3,101,1,5,0.5,1,0.601697499980219,0
4,9,1,3,0.99,2,0.650690499984194,1
5,34,1,1,1.2,2,0.56869149999693,1
6,79,1,1,1.1,2,0.61821190000046,1
7,68,1,2,0.99,1,1.05157410004176,0
8,104,1,5,0.5,1,0.634345699974801,0
9,82,1,1,1.025,2,0.634322499972768,1
10,29,1,2,1.2,2,0.701156300026923,1
11,48,1,3,0.75,1,0.667677599994931,0
12,60,1,3,0.9,1,0.651277200027835,0
13,84,1,3,0.975,2,0.600982500007376,1
14,40,1,1,0.975,2,0.70217300002696,1
15,41,1,2,1.1,2,0.734600499970838,1
16,109,1,5,0.5,1,0.635102499974892,0
17,10,1,1,0.8,1,0.784792899969034,0
18,59,1,2,1.025,2,0.701544900017325,1
19,62,1,2,0.975,1,1.03440150001552,0
20,105,1,5,0.5,1,0.684249299985822,0
21,54,1,3,0.925,2,0.651093099964783,1
22,86,1,2,1.01,2,0.651669499988202,1
23,46,1,1,0.9,1,0.584582100040279,0
24,55,1,1,0.95,1,0.65108479995979,0
25,66,1,3,0.9,1,0.417472400004044,0
26,35,1,2,0.975,2,0.63400720001664,1
27,44,1,2,0.85,1,0.635036699997727,0
28,76,1,1,0.99,2,0.568218800006434,1
29,108,1,5,0.5,1,0.551001199986786,0
30,103,1,5,0.5,1,0.584266799967736,0
31,78,1,3,0.925,2,0.701022399996873,1
32,83,1,2,0.925,1,0.517801499983761,0
33,70,1,1,0.925,1,0.717982700036373,0
34,92,1,4,1.5,2,0.434157300041988,1
35,73,1,1,0.975,1,0.701645900029689,0
36,110,1,5,0.5,1,0.451579099986702,0
37,89,1,2,0.95,2,0.584597199980635,1
38,56,1,2,0.75,1,0.434288899996318,0
39,30,1,3,0.9,1,0.618639099993743,0
40,80,1,2,0.75,1,0.467683699971531,0
41,38,1,2,1.15,2,0.484512600000016,1
42,61,1,1,1.1,2,0.434148299973458,1
43,96,1,4,1.5,2,0.401529499969911,1
44,93,1,4,1.5,2,0.351305599964689,1
45,67,1,1,1.01,1,0.467745999980252,0
46,63,1,3,0.925,1,0.467534699942917,0
47,69,1,3,0.95,1,0.785372200014535,0
48,42,1,3,1.125,2,0.500981599965598,1
49,45,1,3,1.1,2,0.51874129998032,1
50,37,1,1,1.175,2,0.484340799972415,1
51,57,1,3,1.075,2,0.584208300046157,1
52,90,1,3,0.95,1,0.701401399972383,0
53,4,1,1,1.15,2,0.484349900041707,1
54,65,1,2,0.825,1,0.58442670002114,0
55,50,1,2,0.95,1,0.901594499999192,0
56,7,1,1,1.01,2,0.434779700008221,1
57,22,1,1,0.875,1,0.784752300009131,0
58,8,1,2,0.99,1,1.50140710000414,0
59,16,1,1,0.9,1,0.618029700010084,0
60,87,1,3,1.075,2,0.601109799987171,1
61,39,1,3,0.95,1,1.08437499997672,0
62,107,1,5,0.5,1,56.0426326000015,0
63,11,1,2,1.05,2,0.606874307559337,1
64,13,1,1,0.99,1,0.48450112802675,0
65,58,1,1,1.05,2,0.477177973196376,1
66,91,1,4,1.5,2,0.52620762801962,1
67,97,1,4,1.5,2,0.360381727979984,1
68,15,1,3,0.975,1,0.418790238851216,0
69,52,1,1,1.01,1,0.822362542035989,0
70,75,1,3,1.15,2,0.489416007592808,1
71,72,1,3,1.125,2,0.59957242483506,1
72,99,1,4,1.5,2,0.421699838829227,1
73,102,1,5,0.5,1,0.443648941989522,0
74,95,1,4,1.5,2,0.472866687225178,1
75,2,1,2,0.99,1,0.522604201221839,0
76,53,1,2,1.01,1,0.88999343116302,0
77,14,1,2,1.125,2,0.498414642002899,1
78,49,1,1,1.025,1,131.699488356011,0
79,43,1,1,1.125,2,0.551119324809406,1
80,25,1,1,1.075,2,0.586808242020197,1
81,17,1,2,1.025,2,0.613584707607515,1
82,19,1,1,1.05,2,0.521282821660861,1
83,81,1,3,1.01,2,0.464379573240876,1
84,100,1,4,1.5,2,0.484423241985496,1
85,74,1,2,0.99,1,0.407758359215222,0
86,106,1,5,0.5,1,0.365476838778704,0
87,64,1,1,1.01,2,0.421671235584654,1
88,3,1,3,0.95,1,0.506975624826737,0
89,33,1,3,0.975,1,0.764615827996749,0
90,77,1,2,0.99,2,0.592409770062659,1
91,27,1,3,0.99,1,0.562839524820447,0
92,26,1,2,1.125,2,0.420988621597644,1
93,98,1,4,1.5,2,0.448272028006613,1
94,24,1,3,1.1,2,0.592820666846819,1
95,32,1,2,0.925,1,0.501342124771327,0
96,21,1,3,1.01,2,0.533003166841809,1
97,5,1,2,0.99,2,0.547712687170133,1
98,36,1,3,0.975,1,0.960248573217541,0
99,28,1,1,0.95,1,0.469686231168453,0
100,71,1,2,0.9,1,0.620982473192271,0
101,6,1,3,0.975,2,0.700920899980702,1
102,31,1,1,0.975,1,0.507741924840957,0
103,23,1,2,1.075,2,0.523881645232905,1
104,51,1,3,0.875,1,0.482716193597298,0
105,85,1,1,1.025,2,0.561540787224658,1
106,12,1,3,1.025,2,0.543175110768061,1
107,20,1,2,0.95,1,0.501727021590341,0
108,1,1,1,0.99,1,0.635436038835905,0
109,47,1,2,1.05,2,0.432338470011018,1
110,18,1,3,0.95,1,0.388930252811406,0
111,149,2,3,0.99,1,0.545086121594068,0
112,209,2,4,1.5,2,0.473817721591331,1
113,184,2,2,0.99,1,0.443675970018376,0
114,197,2,3,1.2,2,0.526248959242366,1
115,202,2,4,1.5,2,0.479700993571896,1
116,208,2,4,1.5,2,0.513255041965749,1
117,150,2,1,0.99,1,0.459924604394473,0
118,204,2,4,1.5,2,0.446099270018749,1
119,146,2,3,1.1,1,0.61518289038213,0
120,211,2,5,0.5,1,0.53008890763158,0
121,180,2,1,1.2,2,0.517436024791095,1
122,128,2,3,1.15,2,0.733710593602154,1
123,124,2,2,1.2,2,0.492092248401605,1
124,172,2,2,1.1,2,0.602290007576812,1
125,158,2,3,1.125,2,0.526236662408337,1
126,120,2,1,1.1,2,0.697527924785391,1
127,199,2,2,1.025,2,0.764095590391662,1
128,121,2,2,0.975,2,0.521629000024404,1
129,189,2,1,1.025,2,0.442833856039215,1
130,157,2,2,0.8,1,0.447315155994147,0
131,113,2,3,1.1,2,0.403970545215998,1
132,122,2,3,1.025,2,0.41772602481069,1
133,198,2,1,0.975,2,0.406834907596931,1
134,216,2,5,0.5,1,0.491221673204564,0
135,187,2,2,0.9,2,0.422548179572914,1
136,203,2,4,1.5,2,0.661719704454299,1
137,190,2,2,0.85,1,0.543992238817737,0
138,207,2,4,1.5,2,0.416940290364437,1
139,176,2,3,0.9,1,1.25280477001797,0
140,188,2,3,0.975,2,0.46399612800451,1
141,137,2,3,0.75,1,0.363696452812292,0
142,213,2,5,0.5,1,0.414050790423062,0
143,123,2,1,0.8,1,0.372576742025558,0
144,185,2,3,0.8,1,0.521680373174604,0
145,166,2,2,0.875,1,0.4350830388139,0
146,206,2,4,1.5,2,0.43163518718211,1
147,162,2,1,0.9,1,0.389110607560724,0
148,192,2,1,0.95,1,0.395869170024525,0
149,142,2,2,0.9,1,0.371931938861962,0
150,138,2,1,0.99,1,0.419485670048743,0
151,112,2,2,1.15,2,0.416658542002551,1
152,195,2,1,1.01,1,0.476060893619433,0
153,156,2,1,1.05,2,0.534211100020912,1
154,152,2,3,0.95,1,0.600619993638247,0
155,118,2,2,0.925,1,0.491919445223175,0
156,127,2,2,0.99,1,0.744154748390429,0
157,193,2,2,1.175,2,0.38493612484308,1
158,215,2,5,0.5,1,0.44711864204146,0
159,126,2,1,1.025,2,0.452633418433834,1
160,115,2,2,1.01,2,0.650499396782834,1
161,168,2,1,1.01,1,0.868423876410816,0
162,117,2,1,1.025,2,0.340530100045726,1
163,151,2,2,0.99,1,0.648472300032154,0
164,200,2,3,0.975,2,0.357165599998552,1
165,219,2,5,0.5,1,0.447540000022855,0
166,159,2,1,1.01,2,0.484537000011187,1
167,135,2,1,0.99,2,0.381566700001713,1
168,116,2,3,0.8,1,0.396893362398259,0
169,169,2,2,0.99,2,1.06925099680666,1
170,173,2,3,0.975,1,0.768187856010627,0
171,218,2,5,0.5,1,0.423221521603409,0
172,160,2,2,0.75,1,0.445116056012921,0
173,212,2,5,0.5,1,0.379612421616912,0
174,178,2,2,1.175,2,0.371619670011569,1
175,171,2,1,0.8,1,0.458980421593878,0
176,114,2,1,0.825,1,0.509062456025276,0
177,174,2,1,0.85,1,0.56304825283587,0
178,164,2,3,1.25,2,0.442681155982427,1
179,139,2,2,0.825,1,0.450546721636783,0
180,170,2,3,0.75,1,1.02951761084842,0
181,196,2,2,0.975,2,0.638291193637997,1
182,220,2,5,0.5,1,0.338401727960445,0
183,145,2,2,0.8,1,0.647794707620051,0
184,217,2,5,0.5,1,0.420573652838357,0
185,186,2,1,1.125,2,0.450463021639735,1
186,129,2,1,0.925,1,0.938330593635328,0
187,140,2,3,1.2,2,0.364735107636079,1
188,201,2,4,1.5,2,0.363944059237838,1
189,153,2,1,0.99,2,0.554464035609271,1
190,183,2,1,0.9,1,0.402445879590232,0
191,210,2,4,1.5,2,0.436818679620046,1
192,130,2,2,1.1,2,0.495042500027921,1
193,143,2,3,1.05,2,0.416134600003716,1
194,119,2,3,0.99,2,0.570217499975115,1
195,141,2,1,1.075,2,0.553696200018749,1
196,134,2,3,0.925,1,0.866062599990983,0
197,163,2,2,0.9,2,0.718930504459422,1
198,214,2,5,0.5,1,0.501642870018259,0
199,148,2,2,0.75,1,0.494554828037508,0
200,131,2,3,0.99,2,0.556865904422011,1
201,161,2,3,0.95,2,0.546630918455776,1
202,147,2,1,0.95,1,0.52149330440443,0
203,194,2,3,0.85,2,0.889083313988522,1
204,165,2,1,0.975,2,0.536818221618887,1
205,144,2,1,0.975,2,0.651309342007153,1
206,132,2,1,0.975,1,0.657063113991171,0
207,155,2,3,0.65,1,0.420997348381206,0
208,167,2,3,0.7,1,0.584162238810677,0
209,179,2,3,0.75,1,0.460692390450276,0
210,205,2,4,1.5,2,0.433816366828978,1
211,181,2,2,0.8,1,0.46794184204191,0
212,125,2,3,0.8,1,0.431372576393187,0
213,191,2,3,0.85,1,0.9845382872154,0
214,111,2,1,0.925,2,0.360405704414006,1
215,182,2,3,1.05,2,0.416790284041781,1
216,133,2,2,1.075,2,0.443713559245225,1
217,136,2,2,0.9,1,0.590657856024336,0
218,175,2,2,0.95,2,0.615000218444038,1
219,177,2,1,0.825,1,0.476042127993423,0
220,154,2,2,0.85,1,0.533105890383013,0
