PresOrder,TrialNumber,Background,StairNum,CurrSize,Response,ReactionTIme,Stair_Update
1,86,2,2,0.99,1,2.95960841863416,0
2,57,2,3,0.99,1,1.49126412230544,0
3,35,2,2,1.2,2,1.31357303960249,1
4,47,2,2,1.1,2,1.35047542816028,1
5,108,2,5,0.5,1,1.27469692798331,0
6,49,2,1,0.99,2,1.27689168835059,1
7,48,2,3,1.2,2,1.24673166172579,1
8,59,2,2,1.025,2,1.43310207338072,1
9,24,2,3,1.1,2,1.39887940697372,1
10,25,2,1,0.75,1,1.21701661287807,0
11,31,2,1,0.9,1,2.22967236768454,0
12,80,2,2,0.975,1,1.5275607034564,0
13,1,2,1,0.975,2,1.46398940333165,1
14,70,2,1,0.925,1,1.28338217688724,0
15,110,2,5,0.5,1,1.38686520722695,0
16,36,2,3,1.025,2,1.18955853721127,1
17,7,2,1,0.95,2,1.20989401056431,1
18,12,2,3,0.975,2,1.31316725257784,1
19,81,2,3,0.8,1,1.0305617430713,0
20,17,2,2,1.01,2,1.15113108279184,1
21,99,2,4,1.5,2,1.20089044305496,1
22,39,2,3,0.9,1,2.06344562792219,0
23,27,2,3,0.95,1,2.61852053157054,0
24,18,2,3,0.99,2,1.38259828253649,1
25,41,2,2,0.975,1,1.2659892430529,0
26,104,2,5,0.5,1,1.10735486773774,0
27,69,2,3,0.925,2,1.60151808266528,1
28,37,2,1,0.925,2,1.65656118257903,1
29,54,2,3,0.7,1,0.987740531563759,0
30,28,2,1,0.875,1,1.05030931276269,0
31,109,2,5,0.5,1,1.06253699213266,0
32,10,2,1,0.925,2,0.987170727923512,1
33,9,2,3,0.75,1,1.55444486741908,0
34,26,2,2,0.99,2,1.10201499774121,1
35,74,2,2,0.95,2,1.92013106774539,1
36,46,2,1,0.9,1,1.14363890723325,0
37,103,2,5,0.5,1,1.45178089779802,0
38,19,2,1,0.95,2,1.40156160341576,1
39,82,2,1,0.925,1,1.28756973380223,0
40,43,2,1,0.975,2,1.23289988259785,1
41,92,2,4,1.5,2,1.0989089733921,1
42,98,2,4,1.5,2,1.87701798835769,1
43,76,2,1,0.9,1,1.50369624304585,0
44,56,2,2,0.75,1,1.67678936757147,0
45,22,2,1,0.95,2,1.23445904324763,1
46,72,2,3,1.15,2,1.25694105983712,1
47,44,2,2,0.8,1,1.26142225251533,0
48,38,2,2,0.825,1,1.32798340008594,0
49,40,2,1,0.925,1,1.24850269989111,0
50,93,2,4,1.5,2,1.18445769767277,1
51,102,2,5,0.5,1,1.03806550707668,0
52,96,2,4,1.5,2,1.58375906199217,1
53,11,2,2,1.15,2,1.13339180359617,1
54,101,2,5,0.5,1,0.987628497648984,0
55,51,2,3,0.925,1,1.64257737318985,0
56,60,2,3,1.125,2,1.20309289777651,1
57,78,2,3,0.95,1,1.10023105260916,0
58,6,2,3,0.975,2,3.86968880705535,1
59,15,2,3,0.95,1,1.35292071290314,0
60,50,2,2,0.975,2,1.71200429764576,1
61,84,2,3,0.975,2,1.3058783467859,1
62,87,2,3,0.95,1,1.43828588258475,0
63,32,2,2,0.75,1,1.41720319772139,0
64,77,2,2,0.875,1,0.987479988252744,0
65,64,2,1,0.95,1,1.40400669327937,0
66,65,2,2,1.125,2,0.987104600062594,1
67,106,2,5,0.5,1,0.986967797856778,0
68,62,2,2,0.925,1,1.01523809786886,0
69,5,2,2,0.95,1,1.21650981297717,0
70,97,2,4,1.5,2,0.986968324519694,1
71,13,2,1,1.01,1,1.48863821639679,0
72,20,2,2,1.05,2,1.76014265255071,1
73,42,2,3,0.975,2,1.19671458262019,1
74,68,2,2,0.975,2,1.27560920710675,1
75,73,2,1,1.175,2,1.07244162796997,1
76,95,2,4,1.5,2,1.24634211300872,1
77,4,2,1,1.15,2,1.36797025846317,1
78,85,2,1,1.125,2,1.72274124878459,1
79,45,2,3,0.95,1,1.35997768840753,0
80,33,2,3,0.975,2,1.45426603732631,1
81,79,2,1,0.8,1,1.27716857334599,0
82,29,2,2,0.9,2,1.74215595261194,1
83,30,2,3,0.95,1,1.70569418254308,0
84,88,2,1,1.05,2,1.2195878373459,1
85,34,2,1,0.99,1,1.18632768257521,0
86,61,2,1,1.175,2,0.987083312822506,1
87,67,2,1,0.75,1,1.17048199754208,0
88,105,2,5,0.5,1,1.1390949676279,0
89,100,2,4,1.5,2,1.32191702793352,1
90,63,2,3,0.975,1,0.986175409285352,0
91,83,2,2,0.8,1,1.38463746779598,0
92,16,2,1,1.125,2,1.47937172814272,1
93,90,2,3,0.975,2,1.45194026757963,1
94,91,2,4,1.5,2,1.26221270347014,1
95,53,2,2,0.825,1,1.00174734299071,0
96,8,2,2,0.85,1,1.32984801311977,0
97,2,2,2,1.05,2,1.19748391304165,1
98,94,2,4,1.5,2,1.21541293384507,1
99,14,2,2,0.925,1,0.987037994200364,0
100,66,2,3,0.975,1,1.74026668258011,0
101,3,2,3,0.99,1,2.15111930924468,0
102,89,2,2,0.925,1,0.987709448672831,0
103,21,2,3,1.1,2,1.2136317526456,1
104,71,2,2,0.95,1,1.36647071316838,0
105,55,2,1,0.8,1,1.3792541641742,0
106,23,2,2,1.01,2,1.20487814303488,1
107,107,2,5,0.5,1,1.29213296761736,0
108,75,2,3,1.075,2,1.19671757682227,1
109,52,2,1,1.025,2,1.23448988283053,1
110,58,2,1,0.975,1,1.30408333730884,0
111,198,1,1,0.99,2,1.39629111066461,1
112,116,1,3,0.99,2,1.54888971871696,1
113,126,1,1,0.75,1,1.22205819771625,0
114,189,1,1,0.9,1,1.24300516746007,0
115,209,1,4,1.5,2,1.03874269756489,1
116,137,1,3,0.75,1,1.55579247907735,0
117,215,1,5,0.5,1,1.56762209790759,0
118,120,1,1,0.975,2,1.45988062210381,1
119,190,1,2,0.99,1,1.41494288272224,0
120,114,1,1,0.925,2,0.987804197473452,1
121,128,1,3,0.9,1,1.36064521293156,0
122,178,1,2,1.2,2,0.987531212856993,1
123,203,1,4,1.5,2,1.59964689426124,1
124,173,1,3,0.975,2,0.987666413187981,1
125,146,1,3,0.925,1,1.08577341306955,0
126,206,1,4,1.5,2,1.14898140938021,1
127,125,1,3,0.95,1,1.24096968281083,0
128,176,1,3,0.975,1,1.21890391875058,0
129,201,1,4,1.5,2,1.26345493737608,1
130,117,1,1,0.9,1,1.27543789776973,0
131,160,1,2,1.1,2,1.42732306756079,1
132,177,1,1,0.925,1,1.29492406407371,0
133,118,1,2,1.025,2,1.30364871304482,1
134,169,1,2,0.975,2,1.68315616762266,1
135,214,1,5,0.5,1,1.22586258500814,0
136,115,1,2,0.8,1,1.28292364580557,0
137,143,1,3,1.05,2,1.46893496764824,1
138,202,1,4,1.5,2,1.21948349755257,1
139,152,1,3,1.01,1,1.2276682429947,0
140,111,1,1,0.95,1,1.45128338271752,0
141,175,1,2,0.9,1,1.14874361292459,0
142,162,1,1,1.025,2,1.23310859757476,1
143,138,1,1,1.01,1,1.19135987339541,0
144,121,1,2,0.95,1,1.35109450737946,0
145,191,1,3,1.2,2,1.22781662805937,1
146,208,1,4,1.5,2,1.25036805262789,1
147,122,1,3,1.175,2,1.05975848250091,1
148,187,1,2,0.99,1,1.42270604311489,0
149,142,1,2,1.01,1,1.01509178825654,0
150,195,1,1,1.25,2,1.2237006733194,1
151,136,1,2,1.05,1,1.42440393939614,0
152,179,1,3,1.125,2,1.28688383707777,1
153,174,1,1,1.25,2,1.23091909778304,1
154,150,1,1,1.2,2,1.20144470012747,1
155,147,1,1,0.75,1,1.20788399758749,0
156,192,1,1,1.125,2,0.98701852816157,1
157,151,1,2,1.25,2,1.15619343379512,1
158,123,1,1,0.975,1,1.2886086977087,0
159,129,1,1,1.175,2,1.07480874308385,1
160,167,1,3,1.01,1,1.25732540735044,0
161,183,1,1,0.8,1,1.20862247329205,0
162,163,1,2,1.15,2,1.22013039770536,1
163,145,1,2,1.05,1,1.14781316183507,0
164,156,1,1,1.075,2,1.3305801639799,1
165,171,1,1,1.01,1,1.25256075826474,0
166,134,1,3,1.175,2,1.35078987921588,1
167,130,1,2,1.075,2,1.27406320720911,1
168,185,1,3,1.025,1,1.21984043368138,0
169,200,1,3,1.05,1,1.6493634977378,0
170,188,1,3,1.25,2,1.22329327324405,1
171,210,1,4,1.5,2,1.29320734879002,1
172,119,1,3,1.075,1,1.22462958260439,0
173,165,1,1,1.15,2,1.28928427700885,1
174,155,1,3,1.1,1,1.50097087677568,0
175,218,1,5,0.5,1,1.61049184319563,0
176,197,1,3,1.25,2,1.26221398846246,1
177,127,1,2,1.05,2,1.30151922791265,1
178,180,1,1,1.01,2,1.21858953149058,1
179,139,1,2,0.825,1,1.20547815249301,0
180,199,1,2,1.2,2,1.21195781882852,1
181,181,1,2,0.875,1,1.18730892799795,0
182,217,1,5,0.5,1,1.32123850705102,0
183,205,1,4,1.5,2,1.19660297338851,1
184,133,1,2,1.025,1,1.49518083734438,0
185,172,1,2,1.125,2,1.20512316189706,1
186,220,1,5,0.5,1,1.2605572224129,0
187,157,1,2,1.05,1,0.995423548854887,0
188,211,1,5,0.5,1,1.21750716748647,0
189,140,1,3,1.1,2,1.17639136430807,1
190,182,1,3,1.3,2,1.18519213725813,1
191,153,1,1,0.85,1,1.27310672798194,0
192,184,1,2,1.05,1,1.18980224290863,0
193,196,1,2,1.075,2,1.26964569767006,1
194,132,1,1,0.9,1,1.28721468267031,0
195,161,1,3,0.85,1,1.21846475824714,0
196,168,1,1,1.05,2,1.18513264879584,1
197,131,1,3,1.25,2,1.25630168849602,1
198,148,1,2,1.05,2,1.55057413363829,1
199,158,1,3,1.075,2,2.38865079218522,1
200,170,1,3,0.9,1,1.4167449187953,0
201,216,1,5,0.5,1,1.32626934885047,0
202,149,1,3,0.925,1,1.28929507918656,0
203,204,1,4,1.5,2,0.98700886964798,1
204,213,1,5,0.5,1,1.48624246171676,0
205,193,1,2,1.025,2,1.192768443143,1
206,135,1,1,0.99,2,1.33444192796014,1
207,164,1,3,1.15,2,1.16856461297721,1
208,124,1,2,0.9,1,1.28123466181569,0
209,186,1,1,0.95,1,1.18126283725724,0
210,112,1,2,1.15,2,1.22599250008352,1
211,194,1,3,1.025,2,1.00005412800238,1
212,154,1,2,0.95,1,1.01018839213066,0
213,207,1,4,1.5,2,1.18682859232649,1
214,212,1,5,0.5,1,1.07937096757814,0
215,144,1,1,0.99,1,1.47903355257586,0
216,219,1,5,0.5,1,1.44964673393406,0
217,159,1,1,1.05,2,1.29628284298815,1
218,141,1,1,0.95,1,1.24848190345801,0
219,166,1,2,0.99,2,1.23316789767705,1
220,113,1,3,0.925,1,1.19012816762552,0
