PresOrder,TrialNumber,Background,StairNum,BlockNum,PerspNum,CurrSize,Response,ReactionTIme,Stair_Update
1,24,2,2,1,2,0.99,2,1.16247434999968,1
2,10,2,2,1,2,0.75,1,1.60733840600005,0
3,25,2,1,1,1,0.99,2,1.78415863200007,1
4,7,2,1,1,1,0.75,1,1.45080314899951,0
5,32,2,2,1,2,0.9,2,1.87529965200065,1
6,3,2,1,1,1,0.9,1,1.59099454900024,0
7,29,2,1,1,1,0.975,2,1.49811261700052,1
8,66,2,3,1,2,1.5,2,1.55152713999996,1
9,78,2,4,1,2,0.5,1,1.553976315,0
10,42,2,2,1,2,0.825,1,1.90450329699979,0
11,11,2,1,1,1,0.925,2,1.61443909900026,1
12,23,2,1,1,1,0.9,1,1.50481717899947,0
13,64,2,3,1,2,1.5,2,1.45383851499992,1
14,63,2,3,1,1,1.5,2,1.44601858599981,1
15,44,2,2,1,2,0.875,1,1.75811170899942,0
16,27,2,1,1,1,0.925,1,1.50396004399954,0
17,39,2,1,1,1,0.95,2,1.45253162300014,1
18,47,2,1,1,1,0.95,1,1.38100498699987,0
19,59,2,1,1,1,1.1,2,1.35239840200029,1
20,75,2,4,1,1,0.5,1,1.34128588699969,0
21,9,2,1,1,1,1.075,2,1.25355095000032,1
22,76,2,4,1,2,0.5,1,1.29119860999981,0
23,2,2,2,1,2,0.9,2,2.6504082499996,1
24,68,2,3,1,2,1.5,2,1.1132854059997,1
25,70,2,3,1,2,1.5,2,1.21474557799957,1
26,71,2,4,1,1,0.5,1,1.16880490699987,0
27,40,2,2,1,2,0.875,1,1.38664992300073,0
28,5,2,1,1,1,0.825,1,1.08404360200075,0
29,17,2,1,1,1,1.025,2,1.02017245800016,1
30,19,2,1,1,1,0.925,1,1.41277577600067,0
31,14,2,2,1,2,0.9,2,1.09963174600034,1
32,46,2,2,1,2,0.875,1,1.35834044600051,0
33,65,2,3,1,1,1.5,2,1.13161653600037,1
34,62,2,3,1,2,1.5,2,1.1367419320004,1
35,51,2,1,1,1,0.95,1,1.08472524999979,0
36,69,2,3,1,1,1.5,2,1.10879165099959,1
37,41,2,1,1,1,0.975,2,1.10506848299974,1
38,56,2,2,1,2,0.9,1,1.4301153159995,0
39,15,2,1,1,1,0.95,2,1.20724054700077,1
40,16,2,2,1,2,0.925,1,1.02034131099936,0
41,36,2,2,1,2,1.15,2,1.02007148099983,1
42,38,2,2,1,2,1.1,2,1.11632043099962,1
43,22,2,2,1,2,1.075,2,1.06590281699937,1
44,52,2,2,1,2,0.95,1,1.01477210800022,0
45,77,2,4,1,1,0.5,1,1.01038254099967,0
46,60,2,2,1,2,1.175,2,1.01272416699976,1
47,50,2,2,1,2,1.15,2,1.00995276000049,1
48,26,2,2,1,2,0.75,1,1.02595142399969,0
49,6,2,2,1,2,0.975,1,1.17789428099968,0
50,58,2,2,1,2,1.175,2,1.00676154499979,1
51,4,2,2,1,2,0.975,1,1.02121832499961,0
52,80,2,4,1,2,0.5,1,1.48683220899966,0
53,57,2,1,1,1,0.925,1,1.06968986499942,0
54,1,2,1,1,1,0.925,2,1.20501616099955,1
55,49,2,1,1,1,0.825,1,1.00792220899984,0
56,18,2,2,1,2,0.975,2,1.10937931999979,1
57,74,2,4,1,2,0.5,1,1.01339636800003,0
58,13,2,1,1,1,1.05,2,1.46790572500049,1
59,20,2,2,1,2,1.2,2,1.4987720019999,1
60,73,2,4,1,1,0.5,1,1.00895515299999,0
61,30,2,2,1,2,0.75,1,1.29921205100072,0
62,61,2,3,1,1,1.5,2,1.16842054199969,1
63,31,2,1,1,1,0.875,1,1.34010648700041,0
64,43,2,1,1,1,0.975,2,1.03889403999983,1
65,12,2,2,1,2,1.1,2,1.20799485499992,1
66,53,2,1,1,1,0.925,2,1.52241705100005,1
67,34,2,2,1,2,1.05,2,1.32762917599939,1
68,55,2,1,1,1,0.875,1,1.30355238700031,0
69,48,2,2,1,2,0.95,1,1.22107545899962,0
70,33,2,1,1,1,0.9,1,1.01091070499933,0
71,67,2,3,1,1,1.5,2,1.18417101599971,1
72,72,2,4,1,2,0.5,1,1.06773739399978,0
73,37,2,1,1,1,0.95,1,1.12208420200022,0
74,8,2,2,1,2,0.95,1,1.38200382700052,0
75,79,2,4,1,1,0.5,1,1.02132216199971,0
76,45,2,1,1,1,0.99,2,1.01916330700078,1
77,21,2,1,1,1,0.975,1,1.01979661699988,0
78,28,2,2,1,2,0.95,2,1.0070561980001,1
79,35,2,1,1,1,1.01,2,1.7377732519999,1
80,54,2,2,1,2,0.825,1,1.01000394200037,0
81,94,1,2,2,2,0.99,1,1.23086216500087,0
82,82,1,2,2,2,1.2,2,1.00723735600059,1
83,86,1,2,2,2,1.1,2,1.03657450300034,1
84,85,1,1,2,1,0.99,1,1.02063657300005,0
85,106,1,2,2,2,1.025,1,1.27736742500019,0
86,135,1,1,2,1,1.2,2,1.01900918200045,1
87,137,1,1,2,1,1.1,2,1.00700585700088,1
88,88,1,2,2,2,1.05,1,1.01557501000025,0
89,149,1,3,2,1,1.5,2,1.52346777000002,1
90,131,1,1,2,1,1.025,1,1.16496246499992,0
91,112,1,2,2,2,1.075,1,1.11990586699994,0
92,109,1,1,2,1,1.05,1,1.39599601999998,0
93,92,1,2,2,2,1.1,1,1.15744614499999,0
94,100,1,2,2,2,1.15,2,1.10506905900002,1
95,152,1,4,2,2,0.5,1,1.11827570300011,0
96,139,1,1,2,1,1.075,2,1.22709331199985,1
97,151,1,4,2,1,0.5,1,1.09962450400053,0
98,107,1,1,2,1,1.05,2,1.17103005799981,1
99,95,1,1,2,1,0.975,1,1.11871122000048,0
100,154,1,4,2,2,0.5,1,1.02017107600022,0
101,101,1,1,2,1,1.05,1,1.26517291899927,0
102,130,1,2,2,2,1.125,2,1.07201159800024,1
103,140,1,2,2,2,1.1,1,1.15188398999999,0
104,96,1,2,2,2,1.125,1,1.12365593999948,0
105,90,1,2,2,2,1.25,2,1.20003182099936,1
106,125,1,1,2,1,1.075,1,1.02524524899945,0
107,103,1,1,2,1,1.2,2,1.05848204599988,1
108,113,1,1,2,1,1.175,2,1.29752388899942,1
109,145,1,3,2,1,1.5,2,1.19102254200061,1
110,98,1,2,2,2,1.2,1,1.02567806200022,0
111,99,1,1,2,1,0.95,1,1.00715305400081,0
112,129,1,1,2,1,1.1,2,1.10688649399981,1
113,81,1,1,2,1,1.075,1,1.00890442200034,0
114,91,1,1,2,1,1.1,2,1.41773446800016,1
115,89,1,1,2,1,1.075,1,1.08938415899956,0
116,108,1,2,2,2,0.85,1,1.23248740000054,0
117,134,1,2,2,2,1.4,2,1.08816636000029,1
118,147,1,3,2,1,1.5,2,1.0231668510005,1
119,126,1,2,2,2,1.35,2,1.24823774800007,1
120,111,1,1,2,1,1.075,1,1.07815618800032,0
121,141,1,3,2,1,1.5,2,1.22189170399997,1
122,104,1,2,2,2,1.3,2,1.02425533699989,1
123,132,1,2,2,2,0.975,1,1.05647507100002,0
124,116,1,2,2,2,1.15,2,1.23298634000002,1
125,133,1,1,2,1,1.075,1,1.11840244799987,0
126,148,1,3,2,2,1.5,2,1.04874249800014,1
127,83,1,1,2,1,1.1,1,1.20964916199955,0
128,121,1,1,2,1,1.15,1,1.49940695300029,0
129,115,1,1,2,1,1.3,2,1.11407007999969,1
130,160,1,4,2,2,0.5,1,1.0068120549995,0
131,93,1,1,2,1,1.3,2,1.02035933800016,1
132,122,1,2,2,2,1.15,1,1.31965898199996,0
133,146,1,3,2,2,1.5,2,1.18839206499979,1
134,157,1,4,2,1,0.5,1,1.01993055200001,0
135,105,1,1,2,1,1.25,2,1.10680924699955,1
136,138,1,2,2,2,1.3,1,1.09755472599954,0
137,127,1,1,2,1,1.25,2,1.01423936399988,1
138,84,1,2,2,2,1.5,2,1.01036664900039,1
139,102,1,2,2,2,1.45,2,1.01152637999985,1
140,120,1,2,2,2,0.875,1,1.43899771799988,0
141,153,1,4,2,1,0.5,1,1.00921713499974,0
142,97,1,1,2,1,1.125,2,1.27140701600001,1
143,143,1,3,2,1,1.5,2,1.02130258899979,1
144,123,1,1,2,1,1.125,1,1.18976229300006,0
145,110,1,2,2,2,1.4,2,1.81638992599983,1
146,119,1,1,2,1,1.25,2,1.48138520900011,1
147,150,1,3,2,2,1.5,2,1.01653844800057,1
148,155,1,4,2,1,0.5,1,1.01597941400087,0
149,114,1,2,2,2,1.35,2,1.64093391400002,1
150,118,1,2,2,2,1.3,1,1.01206854500015,0
151,117,1,1,2,1,1.25,2,1.9947139169999,1
152,87,1,1,2,1,0.99,1,1.01819715999954,0
153,136,1,2,2,2,0.875,1,1.18901084499976,0
154,159,1,4,2,1,0.5,1,1.23056132799957,0
155,158,1,4,2,2,0.5,1,1.18912178400024,0
156,124,1,2,2,2,1.45,2,1.11964155499936,1
157,156,1,4,2,2,0.5,1,1.02032705999954,0
158,142,1,3,2,2,1.5,2,1.00686689699978,1
159,144,1,3,2,2,1.5,2,1.44817510199937,1
160,128,1,2,2,2,1.4,2,1.20601060899935,1
161,175,2,1,3,1,0.99,2,1.0473985030003,1
162,187,2,1,3,1,0.75,1,1.02992326099957,0
163,185,2,1,3,1,0.9,1,1.00805964899973,0
164,189,2,1,3,1,0.975,2,1.01483210100014,1
165,200,2,2,3,2,0.99,2,1.29327818599995,1
166,222,2,3,3,2,1.5,2,1.01439684599973,1
167,163,2,1,3,1,0.925,1,1.01011693400051,0
168,194,2,2,3,2,0.75,1,1.00998165300007,0
169,184,2,2,3,2,0.9,1,1.12808449800013,0
170,217,2,1,3,1,0.95,2,1.02869672599991,1
171,186,2,2,3,2,0.975,1,1.04696611300005,0
172,209,2,1,3,1,0.925,2,1.03911503600011,1
173,195,2,1,3,1,0.875,1,1.01922635099982,0
174,231,2,4,3,1,0.5,1,1.38484910499938,0
175,220,2,2,3,2,1.1,2,1.00806262900005,1
176,190,2,2,3,2,1.01,1,1.01580475799983,0
177,237,2,4,3,1,0.5,1,1.00915812800031,0
178,203,2,1,3,1,0.925,2,1.14006742799938,1
179,204,2,2,3,2,1.05,2,1.15199216300061,1
180,196,2,2,3,2,1.01,2,1.37219147300038,1
181,207,2,1,3,1,0.9,1,1.00786982699992,0
182,168,2,2,3,2,0.925,1,1.37483509100002,0
183,169,2,1,3,1,0.95,2,1.21054317800008,1
184,227,2,3,3,1,1.5,2,1.09926649699992,1
185,202,2,2,3,2,1.1,2,1.20893728600004,1
186,205,2,1,3,1,0.925,1,1.05148488699979,0
187,170,2,2,3,2,0.99,2,1.2693029309994,1
188,183,2,1,3,1,0.975,2,1.22111940000013,1
189,225,2,3,3,1,1.5,2,1.05376660399997,1
190,171,2,1,3,1,0.9,1,1.16060684500007,0
191,198,2,2,3,2,0.975,2,1.22681891100001,1
192,162,2,2,3,2,0.875,1,1.0093401160002,0
193,221,2,3,3,1,1.5,2,1.00801128800049,1
194,240,2,4,3,2,0.5,1,1.41489427800025,0
195,197,2,1,3,1,0.95,1,1.26402701000006,0
196,210,2,2,3,2,0.95,2,1.15878627300026,1
197,165,2,1,3,1,1.05,2,1.19420770399938,1
198,193,2,1,3,1,1.025,1,1.21376666600008,0
199,206,2,2,3,2,0.85,1,1.22762372299985,0
200,188,2,2,3,2,0.95,2,1.25376557500022,1
201,223,2,3,3,1,1.5,2,1.29755403099989,1
202,176,2,2,3,2,0.925,1,1.47418458399989,0
203,215,2,1,3,1,1.2,2,1.12868327500018,1
204,161,2,1,3,1,1.175,2,1.21955035199971,1
205,191,2,1,3,1,0.75,1,1.21288213700063,0
206,232,2,4,3,2,0.5,1,1.19913739399999,0
207,164,2,2,3,2,0.95,2,1.02007460700042,1
208,239,2,4,3,1,0.5,1,1.01993238499927,0
209,180,2,2,3,2,0.95,2,1.12983976699979,1
210,179,2,1,3,1,1.1,2,1.15768159700019,1
211,218,2,2,3,2,0.925,1,1.69302939900081,0
212,233,2,4,3,1,0.5,1,1.20397891200082,0
213,181,2,1,3,1,0.8,1,1.27289008299977,0
214,178,2,2,3,2,0.95,1,1.16655017100038,0
215,177,2,1,3,1,0.99,2,1.25818956300009,1
216,230,2,3,3,2,1.5,2,1.24095441499958,1
217,224,2,3,3,2,1.5,2,1.29550159799965,1
218,208,2,2,3,2,0.95,1,1.22936379299972,0
219,192,2,2,3,2,1.1,2,1.07016699199994,1
220,182,2,2,3,2,0.85,1,1.18174909599929,0
221,167,2,1,3,1,0.95,2,1.30582381000022,1
222,236,2,4,3,2,0.5,1,1.18372427800023,0
223,235,2,4,3,1,0.5,1,1.22364163800012,0
224,214,2,2,3,2,0.975,2,1.19160336000004,1
225,229,2,3,3,1,1.5,2,1.25752455899965,1
226,166,2,2,3,2,0.975,1,1.24760361399967,0
227,172,2,2,3,2,1.1,2,1.17580768799962,1
228,238,2,4,3,2,0.5,1,1.20343002299978,0
229,234,2,4,3,2,0.5,1,1.12529619899942,0
230,216,2,2,3,2,0.825,1,1.33643899699928,0
231,226,2,3,3,2,1.5,2,1.18142488400008,1
232,174,2,2,3,2,1.025,2,1.14371621699956,1
233,219,2,1,3,1,0.95,1,2.1903973970002,0
234,228,2,3,3,2,1.5,2,1.31165121100003,1
235,173,2,1,3,1,0.825,1,1.45680120599991,0
236,213,2,1,3,1,1.01,2,1.1585990829999,1
237,201,2,1,3,1,0.99,2,1.12375066099958,1
238,211,2,1,3,1,0.9,1,1.07329554100033,0
239,199,2,1,3,1,0.975,2,1.2310766999999,1
240,212,2,2,3,2,0.9,1,1.18297567699938,0
241,312,1,4,4,2,0.5,1,1.11795757099935,0
242,281,1,1,4,1,0.99,1,1.21143853600006,0
243,248,1,2,4,2,0.99,1,1.18642929500038,0
244,247,1,1,4,1,1.2,2,1.11795060499935,1
245,300,1,2,4,2,1.2,2,1.02627872100038,1
246,307,1,3,4,1,1.5,2,1.00688659000025,1
247,274,1,2,4,2,1.1,1,1.17126933600048,0
248,314,1,4,4,2,0.5,1,1.02042577199973,0
249,309,1,3,4,1,1.5,2,1.50336503000017,1
250,294,1,2,4,2,1.15,2,1.12658666400057,1
251,297,1,1,4,1,1.1,1,1.180388709,0
252,264,1,2,4,2,1.125,1,1.11589124999955,0
253,243,1,1,4,1,1.15,1,1.32666680399961,0
254,288,1,2,4,2,1.15,1,1.80486029900021,0
255,250,1,2,4,2,1.175,2,1.15802090799934,1
256,301,1,3,4,1,1.5,2,1.15353099499953,1
257,306,1,3,4,2,1.5,2,1.10113597599957,1
258,315,1,4,4,1,0.5,1,1.0746194100002,0
259,246,1,2,4,2,1.1,1,1.10400317299991,0
260,269,1,1,4,1,1.175,2,1.25504275200001,1
261,305,1,3,4,1,1.5,2,1.20558520299983,1
262,311,1,4,4,1,0.5,1,1.19345634799993,0
263,277,1,1,4,1,1.15,1,1.07231398499971,0
264,316,1,4,4,2,0.5,1,1.23716464500012,0
265,284,1,2,4,2,1.175,2,1.41673828999956,1
266,289,1,1,4,1,1.175,1,1.12980347800021,0
267,263,1,1,4,1,1.2,2,1.26101623300019,1
268,262,1,2,4,2,1.15,1,1.21173870799976,0
269,260,1,2,4,2,1.175,1,1.02292529399983,0
270,267,1,1,4,1,1.2,2,1.02119252900047,1
271,282,1,2,4,2,1.25,2,1.07873229899997,1
272,259,1,1,4,1,1.175,1,1.1185416849994,0
273,302,1,3,4,2,1.5,2,1.01999218400033,1
274,275,1,1,4,1,1.2,1,1.57501640899955,0
275,272,1,2,4,2,1.25,1,1.9069992929999,0
276,253,1,1,4,1,1.3,1,1.41659611700015,0
277,308,1,3,4,2,1.5,2,1.22751276700001,1
278,241,1,1,4,1,0.8,1,1.10760710500017,0
279,304,1,3,4,2,1.5,2,1.00935649799976,1
280,295,1,1,4,1,0.825,1,1.06508800099982,0
281,257,1,1,4,1,0.85,1,1.02057242199953,0
282,242,1,2,4,2,0.85,1,1.09808070799954,0
283,265,1,1,4,1,0.875,1,1.07894838499942,0
284,298,1,2,4,2,0.875,1,1.0801311690002,0
285,303,1,3,4,1,1.5,2,1.18986668300022,1
286,266,1,2,4,2,1.4,2,1.13731727300001,1
287,258,1,2,4,2,1.4,2,1.09667268500016,1
288,319,1,4,4,1,0.5,1,1.15301515200008,0
289,299,1,1,4,1,1.45,2,1.14793448,1
290,268,1,2,4,2,1.35,2,1.21679098800087,1
291,313,1,4,4,1,0.5,1,1.02521911599979,0
292,285,1,1,4,1,1.4,2,1.13767915500011,1
293,290,1,2,4,2,1.3,2,1.08687438299967,1
294,273,1,1,4,1,1.35,2,1.16384803599976,1
295,244,1,2,4,2,1.2,1,1.67730047600071,0
296,292,1,2,4,2,0.975,1,1.01978929300003,0
297,280,1,2,4,2,1.35,2,1.07303630099977,1
298,320,1,4,4,2,0.5,1,1.15205324100043,0
299,317,1,4,4,1,0.5,1,1.159427392,0
300,296,1,2,4,2,1.35,2,1.29101843300032,1
301,287,1,1,4,1,1.25,2,1.21667012600028,1
302,254,1,2,4,2,1.3,2,1.10578096100016,1
303,249,1,1,4,1,1.25,1,1.19894900600048,0
304,245,1,1,4,1,1.45,2,1.12212683999951,1
305,310,1,3,4,2,1.5,2,1.08579215999998,1
306,252,1,2,4,2,1.1,1,1.01995077599986,0
307,261,1,1,4,1,1.45,2,1.39657864399942,1
308,318,1,4,4,2,0.5,1,1.09565449799993,0
309,283,1,1,4,1,1.4,2,1.12660788999983,1
310,251,1,1,4,1,1.35,2,1.25950964399999,1
311,256,1,2,4,2,1.2,1,1.1016521090005,0
312,276,1,2,4,2,1.3,2,1.13340120500015,1
313,270,1,2,4,2,1.25,2,1.14545547800026,1
314,271,1,1,4,1,1.075,1,1.31000465699981,0
315,291,1,1,4,1,1.25,2,1.17881804399985,1
316,293,1,1,4,1,1.2,1,1.41409610899973,0
317,255,1,1,4,1,1.3,2,1.15124613500029,1
318,279,1,1,4,1,1.25,2,1.40049662299953,1
319,278,1,2,4,2,1.25,2,1.13958052999988,1
320,286,1,2,4,2,1.2,1,1.3912821820004,0
