PresOrder,TrialNumber,Background,StairNum,BlockNum,PerspNum,CurrSize,Response,ReactionTIme,Stair_Update
1,71,2,4,1,1,0.5,1,1.99679926899989,0
2,24,2,2,1,2,0.99,2,1.36015716499969,1
3,45,2,1,1,1,0.99,2,1.57960104999984,1
4,39,2,1,1,1,0.75,1,1.44595922000008,0
5,57,2,1,1,1,0.9,1,1.32488853999985,0
6,36,2,2,1,2,0.75,1,1.29693196900007,0
7,70,2,3,1,2,1.5,2,1.30127628700029,1
8,23,2,1,1,1,0.975,1,1.32428019500003,0
9,20,2,2,1,2,0.9,1,1.30717748400002,0
10,32,2,2,1,2,0.975,1,1.25700810999933,0
11,76,2,4,1,2,0.5,1,1.28116973600027,0
12,37,2,1,1,1,1.1,2,1.42588615100067,1
13,59,2,1,1,1,1.01,1,1.32261703600034,0
14,30,2,2,1,2,1.1,2,1.25588195199998,1
15,58,2,2,1,2,1.01,2,1.27796800200031,1
16,68,2,3,1,2,1.5,2,1.13347392299966,1
17,44,2,2,1,2,0.975,1,1.25587284199992,0
18,25,2,1,1,1,1.05,1,1.31980462399952,0
19,47,2,1,1,1,1.125,2,1.27566776900039,1
20,28,2,2,1,2,0.99,1,1.31720144500014,0
21,18,2,2,1,2,1.025,2,1.49883552799929,1
22,53,2,1,1,1,1.075,2,1.11639299499984,1
23,41,2,1,1,1,1.05,2,1.25599888899978,1
24,77,2,4,1,1,0.5,1,1.26493746300002,0
25,42,2,2,1,2,1.01,1,1.1193359859999,0
26,74,2,4,1,2,0.5,1,1.2688152110004,0
27,75,2,4,1,1,0.5,1,1.03434943699995,0
28,55,2,1,1,1,0.825,1,1.24308021199977,0
29,11,2,1,1,1,1.175,2,1.2020610239997,1
30,52,2,2,1,2,1.15,2,1.44387289499991,1
31,9,2,1,1,1,1.025,2,1.28517648500019,1
32,43,2,1,1,1,0.85,1,1.00800023200009,0
33,4,2,2,1,2,1.125,2,1.0154335950001,1
34,29,2,1,1,1,0.99,1,1.0103375839999,0
35,10,2,2,1,2,0.925,1,1.46824174499943,0
36,21,2,1,1,1,1.15,2,1.23481636499946,1
37,60,2,2,1,2,1.025,2,1.37083520399938,1
38,31,2,1,1,1,1.01,2,1.24666944700039,1
39,63,2,3,1,1,1.5,2,1.14967425300074,1
40,66,2,3,1,2,1.5,2,1.16140783100036,1
41,26,2,2,1,2,0.99,1,1.22110015399994,0
42,7,2,1,1,1,0.875,1,1.20691591499963,0
43,56,2,2,1,2,1.01,1,1.20881330099928,0
44,5,2,1,1,1,0.95,1,1.13879614199959,0
45,65,2,3,1,1,1.5,2,1.00912969799992,1
46,79,2,4,1,1,0.5,1,1.276297161,0
47,48,2,2,1,2,1.025,1,1.13950285600004,0
48,67,2,3,1,1,1.5,2,1.22349974499957,1
49,6,2,2,1,2,1.15,1,1.15897497300011,0
50,50,2,2,1,2,1.35,2,1.16286839099939,1
51,17,2,1,1,1,1.025,2,1.3178018589997,1
52,22,2,2,1,2,1.35,2,1.1616184200002,1
53,51,2,1,1,1,0.99,1,1.34144712999932,0
54,61,2,3,1,1,1.5,2,1.05171232199973,1
55,13,2,1,1,1,1.025,2,1.26000874800047,1
56,14,2,2,1,2,1.3,2,1.15590531700036,1
57,38,2,2,1,2,1.25,2,1.18417067999962,1
58,54,2,2,1,2,1.2,1,1.1978053339999,0
59,33,2,1,1,1,1.01,1,1.11182801999985,0
60,19,2,1,1,1,1.025,2,1.11686276,1
61,2,2,2,1,2,1.45,2,1.00906358799966,1
62,64,2,3,1,2,1.5,2,1.00691148699934,1
63,12,2,2,1,2,0.75,1,1.0071123179996,0
64,73,2,4,1,1,0.5,1,1.96574384499945,0
65,16,2,2,1,2,1.35,2,1.20117781600038,1
66,62,2,3,1,2,1.5,2,1.15461498000059,1
67,8,2,2,1,2,0.8,1,1.0069453290007,0
68,69,2,3,1,1,1.5,2,1.30156425699988,1
69,80,2,4,1,2,0.5,1,1.01311478099979,0
70,27,2,1,1,1,0.99,1,1.09319849500025,0
71,46,2,2,1,2,1.3,2,1.01129554999989,1
72,1,2,1,1,1,1.025,2,1.29309550000016,1
73,35,2,1,1,1,1.01,2,1.09681791700041,1
74,15,2,1,1,1,0.99,1,1.24087602100008,0
75,72,2,4,1,2,0.5,1,2.60674390500026,0
76,49,2,1,1,1,0.99,1,1.42429683499995,0
77,3,2,1,1,1,1.025,2,1.01961287500035,1
78,40,2,2,1,2,1.2,2,2.3787458529996,1
79,34,2,2,1,2,1.1,2,1.51350005699987,1
80,78,2,4,1,2,0.5,1,1.15036610199968,0
81,101,1,1,2,1,0.99,1,1.32530503700036,0
82,87,1,1,2,1,1.2,2,1.14630061900061,1
83,84,1,2,2,2,0.99,1,1.20509608900011,0
84,113,1,1,2,1,1.1,1,1.16644783799984,0
85,118,1,2,2,2,1.2,2,1.12171886299984,1
86,153,1,4,2,1,0.5,1,1.25414104500032,0
87,150,1,3,2,2,1.5,2,1.01982132000012,1
88,160,1,4,2,2,0.5,1,1.19867875199998,0
89,105,1,1,2,1,1.15,1,1.00696812099977,0
90,151,1,4,2,1,0.5,1,1.30432905599991,0
91,143,1,3,2,1,1.5,2,1.31859707000058,1
92,115,1,1,2,1,1.175,1,1.2752670660002,0
93,155,1,4,2,1,0.5,1,1.04929670599995,0
94,88,1,2,2,2,1.1,1,1.23306173899982,0
95,130,1,2,2,2,1.15,1,1.18560882299971,0
96,123,1,1,2,1,1.25,1,1.00728839200019,0
97,106,1,2,2,2,1.175,1,1.02026405699962,0
98,124,1,2,2,2,1.25,1,1.18111866300023,0
99,83,1,1,2,1,1.35,1,1.37651919400014,0
100,154,1,4,2,2,0.5,1,1.11477459300022,0
101,139,1,1,2,1,1.4,2,1.00697850500001,1
102,146,1,3,2,2,1.5,1,1.19310657900041,0
103,149,1,3,2,1,1.5,2,1.01449569500073,1
104,148,1,3,2,2,1.5,1,1.01325016499959,0
105,157,1,4,2,1,0.5,1,1.07662885899936,0
106,128,1,2,2,2,1.35,2,1.01049258199964,1
107,81,1,1,2,1,1.35,2,1.00903413499964,1
108,85,1,1,2,1,1.05,1,1.06144580900036,0
109,98,1,2,2,2,1.3,1,1.00669416800065,0
110,108,1,2,2,2,1.3,1,1.08798939500048,0
111,92,1,2,2,2,1.35,1,1.02014790199974,0
112,111,1,1,2,1,1.3,1,1.01914400800069,0
113,91,1,1,2,1,1.3,1,1.01936659399962,0
114,96,1,2,2,2,1.4,2,1.06599407200065,1
115,125,1,1,2,1,1.35,2,1.00791634699999,1
116,127,1,1,2,1,1.3,1,1.01349801700053,0
117,141,1,3,2,1,1.5,1,1.01141263599948,0
118,93,1,1,2,1,1.35,2,1.97707276199981,1
119,158,1,4,2,2,0.5,1,1.06651261600018,0
120,134,1,2,2,2,1.3,2,1.00795083399953,1
121,144,1,3,2,2,1.5,2,1.15547789799984,1
122,100,1,2,2,2,0.95,1,1.12738824499957,0
123,95,1,1,2,1,1.35,1,1.11541869200028,0
124,145,1,3,2,1,1.5,2,1.89533759300048,1
125,109,1,1,2,1,1.4,1,1.01962777100016,0
126,126,1,2,2,2,0.99,1,1.1451363289998,0
127,122,1,2,2,2,1.025,1,1.13379922199965,0
128,135,1,1,2,1,1.025,1,1.0551843610001,0
129,129,1,1,2,1,1.05,1,1.01132308499928,0
130,89,1,1,2,1,1.075,1,1.80093206699985,0
131,112,1,2,2,2,1.075,1,1.16896206199999,0
132,110,1,2,2,2,1.45,1,1.10843529900012,0
133,132,1,2,2,2,0.99,1,1.04936807400009,0
134,133,1,1,2,1,1.5,2,1.05591855799958,1
135,103,1,1,2,1,1.5,1,1.61601374200018,0
136,116,1,2,2,2,1.025,1,1.23376622100022,0
137,107,1,1,2,1,1.025,1,1.02649163100068,0
138,142,1,3,2,2,1.5,2,1.00787707899963,1
139,102,1,2,2,2,1.05,1,1.73668147399985,0
140,99,1,1,2,1,1.075,1,1.10025104200031,0
141,136,1,2,2,2,1.5,2,1.01081128700025,1
142,86,1,2,2,2,1.45,2,1.01033769600053,1
143,114,1,2,2,2,1.5,2,1.22154019699974,1
144,104,1,2,2,2,1.4,1,1.00683920699976,0
145,90,1,2,2,2,1.5,1,1.0211928359995,0
146,119,1,1,2,1,1.1,1,1.04803744499986,0
147,117,1,1,2,1,1.5,2,1.01945194000018,1
148,138,1,2,2,2,1.075,1,1.09797614299987,0
149,82,1,2,2,2,1.1,1,1.17525824299992,0
150,97,1,1,2,1,1.5,1,1.17992328800028,0
151,159,1,4,2,1,0.5,1,1.01423780599998,0
152,147,1,3,2,1,1.5,1,1.10075811100069,0
153,140,1,2,2,2,1.15,1,1.01135455799977,0
154,152,1,4,2,2,0.5,1,1.01024022699949,0
155,131,1,1,2,1,1.1,1,1.00912226799937,0
156,121,1,1,2,1,1.125,1,1.00694772600036,0
157,156,1,4,2,2,0.5,1,1.00696243799939,0
158,120,1,2,2,2,1.5,1,1.02080838700022,0
159,94,1,2,2,2,1.125,1,1.02070198399997,0
160,137,1,1,2,1,1.15,1,1.08142365200001,0
161,216,2,2,3,2,0.99,1,1.08179947900044,0
162,185,2,1,3,1,0.99,1,1.18322378699941,0
163,232,2,4,3,2,0.5,1,1.00792884700058,0
164,184,2,2,3,2,1.2,2,1.00689272199998,1
165,187,2,1,3,1,1.2,2,1.020582526,1
166,189,2,1,3,1,1.1,2,1.01940772299986,1
167,235,2,4,3,1,0.5,1,1.15817882299962,0
168,197,2,1,3,1,1.025,2,1.12405520599987,1
169,217,2,1,3,1,0.975,2,1.00799761800045,1
170,183,2,1,3,1,0.8,1,1.01478842400047,0
171,177,2,1,3,1,0.9,1,1.06292723299975,0
172,220,2,2,3,2,1.1,2,1.01244785900053,1
173,238,2,4,3,2,0.5,1,1.01141442599965,0
174,237,2,4,3,1,0.5,1,1.0092142200001,0
175,208,2,2,3,2,1.025,2,1.00790608499938,1
176,178,2,2,3,2,0.975,2,1.00810272300077,1
177,226,2,3,3,2,1.5,2,1.03081662899967,1
178,188,2,2,3,2,0.8,1,1.02193729400005,0
179,230,2,3,3,2,1.5,2,1.02038158399955,1
180,182,2,2,3,2,0.9,1,1.01946060899991,0
181,198,2,2,3,2,0.95,1,1.70003374299995,0
182,163,2,1,3,1,0.95,1,1.08279691799999,0
183,239,2,4,3,1,0.5,1,1.0151185069999,0
184,201,2,1,3,1,0.99,2,1.22106887599966,1
185,233,2,4,3,1,0.5,1,1.0108690219995,0
186,203,2,1,3,1,0.925,1,1.01016117499967,0
187,211,2,1,3,1,0.975,1,1.02506521000032,0
188,195,2,1,3,1,1.1,2,1.00790822999988,1
189,173,2,1,3,1,1.01,2,1.66002284100068,1
190,228,2,3,3,2,1.5,2,1.08958055999938,1
191,175,2,1,3,1,0.975,2,1.01939368700005,1
192,180,2,2,3,2,0.99,1,1.7690857739999,0
193,221,2,3,3,1,1.5,2,1.34290964199954,1
194,212,2,2,3,2,1.01,2,1.87160386800042,1
195,213,2,1,3,1,0.875,1,1.01338794700041,0
196,169,2,1,3,1,0.95,1,1.01121969999986,0
197,194,2,2,3,2,0.99,1,1.01136556100028,0
198,199,2,1,3,1,0.975,1,1.00906967899937,0
199,229,2,3,3,1,1.5,2,1.01807418599947,1
200,170,2,2,3,2,1.01,1,1.91698784799974,0
201,161,2,1,3,1,1.05,2,1.07201680100025,1
202,179,2,1,3,1,0.99,2,1.02034231000016,1
203,236,2,4,3,2,0.5,1,1.14373747100035,0
204,206,2,2,3,2,1.125,2,1.19621570999971,1
205,225,2,3,3,1,1.5,2,1.22986588200001,1
206,223,2,3,3,1,1.5,2,1.01481999600037,1
207,191,2,1,3,1,0.99,1,1.01232226699994,0
208,171,2,1,3,1,1.05,2,1.21572010099953,1
209,165,2,1,3,1,0.925,1,1.01153943400004,0
210,192,2,2,3,2,1.05,2,1.01017614500051,1
211,209,2,1,3,1,1.01,1,1.10752940400016,0
212,168,2,2,3,2,1.025,2,2.36267833900001,1
213,234,2,4,3,2,0.5,1,1.06623845000013,0
214,186,2,2,3,2,0.99,2,2.12274407099994,1
215,200,2,2,3,2,0.85,1,1.56086302299991,0
216,222,2,3,3,2,1.5,2,1.30087348699999,1
217,218,2,2,3,2,0.85,1,1.28677313800017,0
218,210,2,2,3,2,0.9,1,1.09940623300008,0
219,204,2,2,3,2,1.075,2,1.04974360699998,1
220,174,2,2,3,2,0.99,2,1.01020520999919,1
221,240,2,4,3,2,0.5,1,1.04373083599967,0
222,215,2,1,3,1,1.075,2,1.08431973299957,1
223,162,2,2,3,2,0.925,2,1.00678416000028,1
224,202,2,2,3,2,0.8,1,1.02064967200022,0
225,164,2,2,3,2,0.825,1,1.03516564100028,0
226,231,2,4,3,1,0.5,1,1.09319655199943,0
227,176,2,2,3,2,0.85,1,1.00673627800006,0
228,224,2,3,3,2,1.5,2,1.01691197299988,1
229,196,2,2,3,2,1.075,2,1.65953421100039,1
230,181,2,1,3,1,1.05,2,1.11509413799922,1
231,172,2,2,3,2,0.925,1,1.60702752699945,0
232,167,2,1,3,1,0.925,1,1.01030419400013,0
233,166,2,2,3,2,0.95,1,1.0665692120001,0
234,227,2,3,3,1,1.5,2,1.00893314000041,1
235,205,2,1,3,1,1.01,1,1.00691214100061,0
236,214,2,2,3,2,0.95,2,1.38009641099961,1
237,190,2,2,3,2,1.075,2,1.08680117400036,1
238,207,2,1,3,1,1.05,2,1.0203161240006,1
239,219,2,1,3,1,1.05,2,1.00693878200036,1
240,193,2,1,3,1,0.95,1,1.11983932200019,0
241,281,1,1,4,1,0.99,1,1.13045443200008,0
242,303,1,3,4,1,1.5,2,1.00689707699985,1
243,279,1,1,4,1,1.2,1,1.1578819159995,0
244,308,1,3,4,2,1.5,2,1.01012266100042,1
245,278,1,2,4,2,0.99,1,1.29939938200005,0
246,292,1,2,4,2,1.2,2,1.53615793599965,1
247,243,1,1,4,1,1.35,2,1.11803491699993,1
248,307,1,3,4,1,1.5,2,1.00801328699981,1
249,320,1,4,4,2,0.5,1,1.00666675699995,0
250,317,1,4,4,1,0.5,1,1.02111427,0
251,260,1,2,4,2,1.1,1,1.0783442310003,0
252,254,1,2,4,2,1.15,1,1.02099256299971,0
253,266,1,2,4,2,1.175,1,1.01931375299955,0
254,267,1,1,4,1,1.25,1,1.03928124699996,0
255,273,1,1,4,1,1.3,1,1.0821470030005,0
256,268,1,2,4,2,1.25,1,1.13962011199965,0
257,242,1,2,4,2,1.35,1,1.4787703259999,0
258,272,1,2,4,2,1.4,2,1.57399769299991,1
259,265,1,1,4,1,1.35,1,1.00996546599981,0
260,280,1,2,4,2,1.35,1,1.92318806399999,0
261,299,1,1,4,1,1.4,1,1.45324192599946,0
262,269,1,1,4,1,1.45,1,1.02772257400011,0
263,286,1,2,4,2,1.4,2,1.23763691799923,1
264,275,1,1,4,1,1.45,2,1.66378760499992,1
265,246,1,2,4,2,1.35,1,1.16307880199929,0
266,306,1,3,4,2,1.5,1,1.34714846800034,0
267,301,1,3,4,1,1.5,2,1.3866554389997,1
268,245,1,1,4,1,1.175,1,1.01221248399997,0
269,289,1,1,4,1,1.2,1,1.14268800300033,0
270,249,1,1,4,1,1.4,1,1.38642995900045,0
271,251,1,1,4,1,1.45,1,1.00800892200004,0
272,288,1,2,4,2,1.35,2,1.01286340899969,1
273,305,1,3,4,1,1.5,1,1.60721817600006,0
274,293,1,1,4,1,1.4,2,1.10382910999942,1
275,295,1,1,4,1,1.15,1,1.5020725760005,0
276,270,1,2,4,2,1.3,1,1.01933512899996,0
277,257,1,1,4,1,1.175,1,1.0066835079997,0
278,250,1,2,4,2,1.3,1,1.54804918900027,0
279,263,1,1,4,1,1.2,2,1.5972265750006,1
280,314,1,4,4,2,0.5,1,1.12789456900009,0
281,259,1,1,4,1,1.025,1,1.05971716099975,0
282,313,1,4,4,1,0.5,1,1.16463585300062,0
283,276,1,2,4,2,1.4,2,1.07231497000066,1
284,248,1,2,4,2,1.35,2,1.00686197100003,1
285,277,1,1,4,1,1.05,2,1.0210659939994,1
286,297,1,1,4,1,0.875,2,1.0204031610001,1
287,271,1,1,4,1,0.65,2,1.42554720200042,1
288,285,1,1,4,1,0.5,2,1.00670432200059,1
289,291,1,1,4,1,0.5,2,1.58632628299983,1
290,262,1,2,4,2,1.3,1,1.0101559349996,0
291,244,1,2,4,2,1.3,1,1.42945015799978,0
292,284,1,2,4,2,1.4,2,1.06964797900037,1
293,300,1,2,4,2,1.4,2,1.01089678999961,1
294,256,1,2,4,2,1.35,2,1.08617758899982,1
295,302,1,3,4,2,1.5,2,1.00805762799973,1
296,287,1,1,4,1,0.5,1,1.04548334399988,0
297,283,1,1,4,1,0.5,1,1.01988188099949,0
298,316,1,4,4,2,0.5,1,1.47795703500014,0
299,309,1,3,4,1,1.5,2,1.15048531600041,1
300,311,1,4,4,1,0.5,1,1.0070714579997,0
301,258,1,2,4,2,1.3,1,1.03226586300025,0
302,252,1,2,4,2,1.3,1,1.06310894499984,0
303,312,1,4,4,2,0.5,1,1.01390058099969,0
304,319,1,4,4,1,0.5,1,1.01143020299969,0
305,294,1,2,4,2,1.4,2,1.26029060099972,1
306,304,1,3,4,2,1.5,2,1.19427679300043,1
307,241,1,1,4,1,0.5,1,1.00803266899948,0
308,296,1,2,4,2,1.3,1,1.03653010800008,0
309,264,1,2,4,2,1.35,1,1.02185289200042,0
310,261,1,1,4,1,0.5,1,1.01969800000006,0
311,255,1,1,4,1,0.5,1,1.4646179020001,0
312,298,1,2,4,2,1.35,2,1.00664365400007,1
313,253,1,1,4,1,0.5,1,1.25526038499993,0
314,247,1,1,4,1,0.5,1,1.2817343910001,0
315,315,1,4,4,1,0.5,1,1.34132020800007,0
316,310,1,3,4,2,1.5,2,1.26363561500057,1
317,318,1,4,4,2,0.5,1,1.28617841100004,0
318,282,1,2,4,2,1.4,1,1.25233980799931,0
319,274,1,2,4,2,1.4,1,1.30726446799963,0
320,290,1,2,4,2,1.5,2,1.50519967299988,1
