PresOrder,TrialNumber,Background,StairNum,BlockNum,PerspNum,CurrSize,Response,ReactionTIme,Stair_Update
1,64,1,3,1,2,1.5,2,1.69155169899932,1
2,15,1,1,1,1,0.99,1,1.64209931299956,0
3,74,1,4,1,2,0.5,1,1.45088871999997,0
4,66,1,3,1,2,1.5,2,1.49797495799976,1
5,65,1,3,1,1,1.5,2,1.53476157300065,1
6,77,1,4,1,1,0.5,1,1.66655125500074,0
7,75,1,4,1,1,0.5,1,1.49648963699929,0
8,21,1,1,1,1,1.2,2,1.54150503100027,1
9,48,1,2,1,2,0.99,1,1.70725172099992,0
10,24,1,2,1,2,1.2,2,1.56931643500047,1
11,68,1,3,1,2,1.5,2,1.59900593900056,1
12,26,1,2,1,2,1.1,2,1.61712892699961,1
13,57,1,1,1,1,1.1,2,1.97125154399964,1
14,39,1,1,1,1,1.025,1,1.73210174499945,0
15,50,1,2,1,2,1.025,1,1.72795249800038,0
16,60,1,2,1,2,1.05,1,1.78031641300004,0
17,72,1,4,1,2,0.5,1,1.58234911,0
18,58,1,2,1,2,1.075,2,1.74457053100014,1
19,18,1,2,1,2,1.05,1,1.62132787100018,0
20,67,1,3,1,1,1.5,2,1.77652730699992,1
21,6,1,2,1,2,1.075,2,1.95775671299998,1
22,19,1,1,1,1,1.05,1,1.83262838500013,0
23,71,1,4,1,1,0.5,1,1.51159006200032,0
24,47,1,1,1,1,1.075,2,1.95796959000018,1
25,29,1,1,1,1,1.05,1,1.62249135000002,0
26,20,1,2,1,2,1.075,2,1.66553013500015,1
27,56,1,2,1,2,1.05,1,2.00122861299951,0
28,1,1,1,1,1,1.075,1,1.60231299799943,0
29,17,1,1,1,1,1.1,2,2.13355554300051,1
30,30,1,2,1,2,1.075,2,1.88331058499989,1
31,10,1,2,1,2,1.05,1,2.11413237299985,0
32,69,1,3,1,1,1.5,2,1.66181508299996,1
33,49,1,1,1,1,1.075,1,1.56347421100054,0
34,22,1,2,1,2,1.075,1,1.8703057900002,0
35,45,1,1,1,1,1.1,1,1.65542587899927,0
36,35,1,1,1,1,1.2,2,1.67184513200027,1
37,11,1,1,1,1,1.175,1,1.75091851999969,0
38,25,1,1,1,1,0.825,1,2.10996218000037,0
39,63,1,3,1,1,1.5,2,1.62613999599944,1
40,32,1,2,1,2,1.075,2,1.51410553599999,1
41,12,1,2,1,2,1.075,1,1.65419191399997,0
42,73,1,4,1,1,0.5,1,1.43784153199977,0
43,9,1,1,1,1,1.4,2,1.51713207500052,1
44,36,1,2,1,2,1.1,2,1.5143203939997,1
45,34,1,2,1,2,1.05,2,1.51997178100009,1
46,40,1,2,1,2,0.975,1,1.81564576999972,0
47,62,1,3,1,2,1.5,2,1.75432536600056,1
48,53,1,1,1,1,1.35,2,1.66339891900043,1
49,80,1,4,1,2,0.5,1,1.79722913499972,0
50,70,1,3,1,2,1.5,2,1.63995733400043,1
51,4,1,2,1,2,0.99,1,2.71879879399967,0
52,59,1,1,1,1,1.3,2,1.66446401799931,1
53,43,1,1,1,1,1.175,1,1.98555266499989,0
54,16,1,2,1,2,1.125,2,1.7885278169997,1
55,33,1,1,1,1,1.4,2,1.6245131859996,1
56,27,1,1,1,1,1.175,1,2.29873255099938,0
57,2,1,2,1,2,1.05,1,1.9582992200003,0
58,52,1,2,1,2,1.05,2,1.64059528600046,1
59,38,1,2,1,2,0.975,1,1.84035119700002,0
60,42,1,2,1,2,1.125,2,1.53595575300005,1
61,41,1,1,1,1,1.175,1,1.58155860900024,0
62,28,1,2,1,2,1.025,1,1.93608918799964,0
63,55,1,1,1,1,1.175,2,1.87048684899946,1
64,23,1,1,1,1,1.45,2,1.70047941800021,1
65,61,1,3,1,1,1.5,2,1.7168724510002,1
66,37,1,1,1,1,0.9,1,1.48814694300017,0
67,44,1,2,1,2,1.05,1,1.83079276300032,0
68,78,1,4,1,2,0.5,1,1.58172347999971,0
69,7,1,1,1,1,1.4,2,1.65659758400034,1
70,3,1,1,1,1,1.35,2,1.40739701199982,1
71,79,1,4,1,1,0.5,1,1.49005725100051,0
72,51,1,1,1,1,1.15,2,1.60678322399963,1
73,14,1,2,1,2,1.05,1,2.29215018400009,0
74,8,1,2,1,2,1.075,2,1.6848456939997,1
75,76,1,4,1,2,0.5,1,1.63573766900026,0
76,31,1,1,1,1,0.925,1,1.56313609099925,0
77,5,1,1,1,1,0.975,1,1.61473451500024,0
78,13,1,1,1,1,1.3,2,1.45450764900033,1
79,46,1,2,1,2,1.075,1,2.53514514899962,0
80,54,1,2,1,2,1.05,2,1.69875889400009,1
81,125,2,1,2,1,0.99,1,2.3041246140001,0
82,103,2,1,2,1,1.2,2,1.66177360700021,1
83,143,2,3,2,1,1.5,2,1.90329800600011,1
84,107,2,1,2,1,1.1,1,1.67238482499943,0
85,126,2,2,2,2,0.99,1,1.54997226199976,0
86,85,2,1,2,1,1.15,2,1.56063061899931,1
87,94,2,2,2,2,1.2,2,1.00920194999981,1
88,154,2,4,2,2,0.5,1,1.00697927599958,0
89,142,2,3,2,2,1.5,2,1.47961287300041,1
90,135,2,1,2,1,1.125,2,1.58887591999974,1
91,108,2,2,2,2,1.1,2,1.51971293099996,1
92,115,2,1,2,1,1.1,2,1.73268965800071,1
93,159,2,4,2,1,0.5,1,1.54625974600003,0
94,160,2,4,2,2,0.5,1,1.58699458200044,0
95,99,2,1,2,1,1.025,2,1.99658107200048,1
96,128,2,2,2,2,1.025,2,1.77272297099989,1
97,104,2,2,2,2,0.975,2,1.9113038430005,1
98,100,2,2,2,2,0.8,1,1.78786219800077,0
99,111,2,1,2,1,0.9,1,1.82828915499977,0
100,131,2,1,2,1,0.975,2,2.12616252600037,1
101,82,2,2,2,2,0.9,1,2.04466850900008,0
102,121,2,1,2,1,0.75,1,1.63799223800015,0
103,106,2,2,2,2,0.95,1,1.67938953300018,0
104,98,2,2,2,2,0.99,1,2.18877894900015,0
105,95,2,1,2,1,0.8,1,1.58245454699954,0
106,133,2,1,2,1,0.95,1,2.02463452600023,0
107,145,2,3,2,1,1.5,2,1.95208959000047,1
108,138,2,2,2,2,1.01,2,1.7163851940004,1
109,120,2,2,2,2,0.99,2,1.81804922500032,1
110,140,2,2,2,2,0.825,1,2.01181951699982,0
111,83,2,1,2,1,0.975,1,2.17484760099978,0
112,92,2,2,2,2,1.125,2,1.92184239200014,1
113,114,2,2,2,2,0.975,2,1.87708415599991,1
114,136,2,2,2,2,0.85,1,1.80315450699982,0
115,96,2,2,2,2,0.925,1,1.76601513100013,0
116,109,2,1,2,1,1.05,2,1.6640515400004,1
117,158,2,4,2,2,0.5,1,1.58197092800037,0
118,137,2,1,2,1,1.01,1,1.69889612899988,0
119,141,2,3,2,1,1.5,2,1.55612038700019,1
120,110,2,2,2,2,0.975,2,1.7603126439999,1
121,129,2,1,2,1,1.175,2,1.63555367899971,1
122,93,2,1,2,1,1.025,1,1.57785758499995,0
123,156,2,4,2,2,0.5,1,1.68427797299955,0
124,134,2,2,2,2,0.95,1,1.81692885600023,0
125,132,2,2,2,2,0.975,2,1.78584904699983,1
126,149,2,3,2,1,1.5,2,1.74984818800021,1
127,151,2,4,2,1,0.5,1,1.80071939200025,0
128,152,2,4,2,2,0.5,1,1.55968772200049,0
129,148,2,3,2,2,1.5,2,1.49782294099987,1
130,144,2,3,2,2,1.5,2,1.50415580699973,1
131,84,2,2,2,2,0.975,1,1.5091060879995,0
132,113,2,1,2,1,1.25,2,1.64327120300004,1
133,130,2,2,2,2,1.05,2,1.81764930899953,1
134,116,2,2,2,2,0.925,1,1.72838761300045,0
135,112,2,2,2,2,0.975,2,1.77421612500075,1
136,105,2,1,2,1,0.875,1,1.745559211,0
137,88,2,2,2,2,0.975,1,2.34683864100043,0
138,118,2,2,2,2,1.05,2,1.67017119800039,1
139,102,2,2,2,2,0.925,1,1.66955846699966,0
140,81,2,1,2,1,1.05,2,1.67501321899999,1
141,122,2,2,2,2,0.99,2,1.6574981800004,1
142,86,2,2,2,2,0.95,1,1.5516725589996,0
143,89,2,1,2,1,1.01,2,1.54605856600028,1
144,157,2,4,2,1,0.5,1,1.4802478319998,0
145,153,2,4,2,1,0.5,1,1.66133455300042,0
146,150,2,3,2,2,1.5,2,1.58680035199995,1
147,101,2,1,2,1,0.85,1,1.54120550400057,0
148,124,2,2,2,2,0.99,1,1.67224933000034,0
149,123,2,1,2,1,0.875,1,1.65586051299942,0
150,146,2,3,2,2,1.5,2,1.59932036099963,1
151,90,2,2,2,2,1.025,1,1.61606140500044,0
152,87,2,1,2,1,1.075,2,1.88097373299934,1
153,139,2,1,2,1,1.05,2,1.6859612950002,1
154,117,2,1,2,1,0.99,2,2.50231556100061,1
155,127,2,1,2,1,0.9,1,2.10051791499973,0
156,147,2,3,2,1,1.5,2,1.9014287709997,1
157,119,2,1,2,1,0.925,1,1.63403654400008,0
158,97,2,1,2,1,1.05,2,1.65811638699961,1
159,155,2,4,2,1,0.5,1,1.59348167899952,0
160,91,2,1,2,1,1.01,2,1.65063778299918,1
161,163,1,1,3,1,0.99,1,1.30897722699956,0
162,179,1,1,3,1,1.2,2,1.41638791900004,1
163,192,1,2,3,2,0.99,1,1.64676675900046,0
164,166,1,2,3,2,1.2,2,1.55222497399973,1
165,180,1,2,3,2,1.1,2,1.54878921900035,1
166,203,1,1,3,1,1.1,1,2.27107149800031,0
167,186,1,2,3,2,1.025,1,2.0249335439994,0
168,189,1,1,3,1,1.15,2,2.0679450130001,1
169,236,1,4,3,2,0.5,1,1.84925340200061,0
170,200,1,2,3,2,1.05,1,1.59198261099937,0
171,196,1,2,3,2,1.075,2,1.62568575900059,1
172,239,1,4,3,1,0.5,1,1.73172813099973,0
173,226,1,3,3,2,1.5,2,1.59181934400021,1
174,183,1,1,3,1,1.125,2,1.53771694899933,1
175,197,1,1,3,1,1.1,2,1.5901270229997,1
176,237,1,4,3,1,0.5,1,1.77043402300023,0
177,174,1,2,3,2,1.05,1,1.57582786200055,0
178,188,1,2,3,2,1.075,1,1.69665008700031,0
179,168,1,2,3,2,1.1,1,1.96691121599997,0
180,171,1,1,3,1,1.025,1,1.73881646100017,0
181,170,1,2,3,2,1.175,2,1.55719185100043,1
182,202,1,2,3,2,1.15,2,1.67328153800008,1
183,229,1,3,3,1,1.5,2,1.90384424700005,1
184,209,1,1,3,1,1.075,1,1.55614149099983,0
185,185,1,1,3,1,1.075,1,1.72435436599972,0
186,217,1,1,3,1,1.1,1,1.64178388500022,0
187,211,1,1,3,1,1.125,2,1.64293298699977,1
188,216,1,2,3,2,1.125,1,1.60206585200012,0
189,214,1,2,3,2,1.25,2,1.57902182900034,1
190,191,1,1,3,1,1.1,2,1.58151365699996,1
191,169,1,1,3,1,1.05,1,1.75104813100006,0
192,235,1,4,3,1,0.5,1,1.60395781199986,0
193,195,1,1,3,1,1.125,2,1.60558825899989,1
194,167,1,1,3,1,1.075,1,1.72036078600013,0
195,210,1,2,3,2,0.95,1,1.63816861199939,0
196,181,1,1,3,1,1.1,2,2.3443238739992,1
197,205,1,1,3,1,1.075,1,1.78690739099966,0
198,208,1,2,3,2,1.125,1,1.61031882899988,0
199,193,1,1,3,1,1.1,2,1.61224742600007,1
200,218,1,2,3,2,1.15,1,1.55784770900027,0
201,222,1,3,3,2,1.5,2,1.4980678109996,1
202,224,1,3,3,2,1.5,2,1.70199371699982,1
203,212,1,2,3,2,1.3,2,1.59508067199931,1
204,194,1,2,3,2,1.3,2,1.6515790479998,1
205,173,1,1,3,1,1.1,1,1.61931342600019,0
206,232,1,4,3,2,0.5,1,1.59659939199992,0
207,221,1,3,3,1,1.5,2,1.62273967300007,1
208,190,1,2,3,2,1.25,2,1.47830608899949,1
209,220,1,2,3,2,1.125,2,1.58948918700025,1
210,240,1,4,3,2,0.5,1,1.56001322700013,0
211,233,1,4,3,1,0.5,1,1.62729444599972,0
212,184,1,2,3,2,0.95,1,1.84279547499955,0
213,198,1,2,3,2,1.25,2,1.70583895900018,1
214,204,1,2,3,2,1.01,1,1.62328818500009,0
215,201,1,1,3,1,1.075,2,1.62277740199988,1
216,234,1,4,3,2,0.5,1,1.9024357469998,0
217,187,1,1,3,1,1.01,1,1.73208830399926,0
218,228,1,3,3,2,1.5,2,1.61614774600002,1
219,215,1,1,3,1,1.15,2,1.91316224399998,1
220,231,1,4,3,1,0.5,1,1.53984320600011,0
221,177,1,1,3,1,1.075,2,1.58908324999993,1
222,213,1,1,3,1,0.975,1,1.63297887200042,0
223,199,1,1,3,1,1.01,1,1.60103003099994,0
224,165,1,1,3,1,1.15,2,1.69825613099965,1
225,176,1,2,3,2,1.2,2,1.64022278599987,1
226,162,1,2,3,2,1.125,1,1.62378114799958,0
227,206,1,2,3,2,1.125,1,1.76053011499971,0
228,207,1,1,3,1,1.075,2,1.84289117200024,1
229,182,1,2,3,2,1.125,2,1.70744787300009,1
230,223,1,3,3,1,1.5,2,1.54759517399998,1
231,227,1,3,3,1,1.5,2,1.89945909800008,1
232,175,1,1,3,1,1.01,1,1.79179015199952,0
233,172,1,2,3,2,1.2,2,2.32838128000003,1
234,230,1,3,3,2,1.5,2,1.71771388400066,1
235,178,1,2,3,2,1.075,1,1.60001048499998,0
236,164,1,2,3,2,1.15,1,1.76117209299991,0
237,219,1,1,3,1,1.025,2,2.6455223439998,1
238,225,1,3,3,1,1.5,2,1.48763242199948,1
239,238,1,4,3,2,0.5,1,1.65761372999987,0
240,161,1,1,3,1,0.925,1,1.60708560999956,0
241,268,2,2,4,2,0.99,1,1.21678707799947,0
242,297,2,1,4,1,0.99,2,1.57034743300028,1
243,249,2,1,4,1,0.75,1,1.51014621200011,0
244,272,2,2,4,2,1.2,2,1.45843676699951,1
245,242,2,2,4,2,1.1,1,1.36888484500014,0
246,275,2,1,4,1,0.9,1,1.54632177699932,0
247,299,2,1,4,1,0.975,2,1.63088209099988,1
248,306,2,3,4,2,1.5,2,1.51195892099986,1
249,246,2,2,4,2,1.15,2,1.8155739799995,1
250,314,2,4,4,2,0.5,1,1.6108889950001,0
251,304,2,3,4,2,1.5,2,1.56468136500007,1
252,248,2,2,4,2,1.125,2,1.56010663500001,1
253,251,2,1,4,1,0.925,1,1.49832732300001,0
254,269,2,1,4,1,0.95,2,1.86442743100088,1
255,300,2,2,4,2,1.1,2,1.74949261799975,1
256,270,2,2,4,2,1.025,1,1.56885550599964,0
257,261,2,1,4,1,0.925,1,1.70174583700009,0
258,285,2,1,4,1,0.95,1,1.70039148100022,0
259,273,2,1,4,1,0.99,2,1.58665708899935,1
260,287,2,1,4,1,0.975,1,1.58212742599972,0
261,271,2,1,4,1,1.075,2,1.681301265,1
262,277,2,1,4,1,1.075,2,1.58967273200051,1
263,245,2,1,4,1,1.05,2,1.8640536390003,1
264,279,2,1,4,1,0.95,1,1.54305153399946,0
265,295,2,1,4,1,0.975,1,1.85867145300017,0
266,313,2,4,4,1,0.5,1,1.86724528900049,0
267,241,2,1,4,1,1.05,2,1.90629321899996,1
268,281,2,1,4,1,0.975,1,1.7220375070001,0
269,309,2,3,4,1,1.5,2,1.72594733799997,1
270,263,2,1,4,1,0.99,1,1.532497143,0
271,253,2,1,4,1,1.1,2,1.4965696599993,1
272,267,2,1,4,1,1.075,2,1.60636770299971,1
273,302,2,3,4,2,1.5,2,1.54335905900007,1
274,274,2,2,4,2,1.075,1,1.77871222500016,0
275,262,2,2,4,2,1.075,2,1.77428447900002,1
276,303,2,3,4,1,1.5,2,1.60300366399952,1
277,258,2,2,4,2,0.9,1,1.60756871000012,0
278,264,2,2,4,2,0.925,2,1.54570140400028,1
279,283,2,1,4,1,1.01,2,1.57347980899976,1
280,312,2,4,4,2,0.5,1,1.61573113700069,0
281,280,2,2,4,2,0.65,1,1.71219102900068,0
282,286,2,2,4,2,0.7,1,1.65298915999938,0
283,308,2,3,4,2,1.5,2,1.70670878500005,1
284,319,2,4,4,1,0.5,1,1.58484300600048,0
285,318,2,4,4,2,0.5,1,1.50953585200023,0
286,289,2,1,4,1,0.975,2,1.61471470500055,1
287,288,2,2,4,2,1.35,2,1.66265331700015,1
288,265,2,1,4,1,0.9,1,1.60703860000012,0
289,256,2,2,4,2,0.75,1,1.58980318100021,0
290,276,2,2,4,2,1.3,2,1.60128854300001,1
291,291,2,1,4,1,0.925,1,1.48902746800013,0
292,316,2,4,4,2,0.5,1,1.582943075,0
293,317,2,4,4,1,0.5,1,1.56188547199963,0
294,255,2,1,4,1,1.01,2,1.72510098299972,1
295,307,2,3,4,1,1.5,2,1.61886802899971,1
296,305,2,3,4,1,1.5,2,1.56066119700063,1
297,250,2,2,4,2,0.875,1,1.58773981800005,0
298,243,2,1,4,1,0.95,1,1.66896415799965,0
299,301,2,3,4,1,1.5,2,1.55581462400005,1
300,282,2,2,4,2,1.05,2,1.47177800000009,1
301,247,2,1,4,1,0.99,1,1.57238035899991,0
302,315,2,4,4,1,0.5,1,1.5769941110002,0
303,254,2,2,4,2,0.8,2,1.02035853000052,1
304,259,2,1,4,1,1.01,1,1.01943915399988,0
305,244,2,2,4,2,0.6,2,1.00783154300007,1
306,320,2,4,4,2,0.5,2,1.01461368800028,1
307,298,2,2,4,2,0.5,2,1.01379983100014,1
308,284,2,2,4,2,1.5,2,1.01127309099957,1
309,296,2,2,4,2,1.5,2,1.37612793399967,1
310,278,2,2,4,2,1.5,2,1.47392753599979,1
311,257,2,1,4,1,1.05,2,1.64861010099958,1
312,293,2,1,4,1,1.05,2,1.88820914200005,1
313,266,2,2,4,2,0.5,1,1.69251877100032,0
314,292,2,2,4,2,0.5,1,1.58019487399997,0
315,311,2,4,4,1,0.5,1,1.70089111600009,0
316,260,2,2,4,2,0.5,1,1.61029288600002,0
317,310,2,3,4,2,1.5,2,1.48230936599975,1
318,252,2,2,4,2,0.5,1,1.56135420099963,0
319,290,2,2,4,2,0.5,1,1.78025372800039,0
320,294,2,2,4,2,0.5,1,1.54366232600023,0
