PresOrder,TrialNumber,Background,StairNum,BlockNum,PerspNum,CurrSize,Response,ReactionTIme,Stair_Update
1,16,1,2,1,2,0.99,1,1.3262979659994,0
2,68,1,3,1,2,1.5,2,1.3092565199986,1
3,43,1,1,1,1,0.99,1,1.33194530699984,0
4,80,1,4,1,2,0.5,1,1.316211379999,0
5,34,1,2,1,2,1.2,2,1.36051005600166,1
6,60,1,2,1,2,1.1,1,1.45107445999747,0
7,69,1,3,1,1,1.5,2,1.25844104999851,1
8,75,1,4,1,1,0.5,1,1.36102428300364,0
9,15,1,1,1,1,1.2,2,1.25145214900112,1
10,23,1,1,1,1,1.1,2,1.29899907099752,1
11,58,1,2,1,2,1.15,2,1.29742981099844,1
12,4,1,2,1,2,1.125,1,1.31103325099684,0
13,29,1,1,1,1,1.025,1,1.28612985400105,0
14,41,1,1,1,1,1.05,1,1.27744478400564,0
15,5,1,1,1,1,1.075,1,1.38880182200228,0
16,26,1,2,1,2,1.15,1,1.24800205399515,0
17,52,1,2,1,2,1.175,1,1.27151099599723,0
18,38,1,2,1,2,1.25,2,1.27196413600177,1
19,35,1,1,1,1,1.1,2,1.14013875000092,1
20,74,1,4,1,2,0.5,1,1.27431319499738,0
21,25,1,1,1,1,1.075,1,1.31954015699739,0
22,1,1,1,1,1,1.1,2,1.5631782269993,1
23,13,1,1,1,1,1.075,2,1.25636838799983,1
24,78,1,4,1,2,0.5,1,1.31110343599721,0
25,44,1,2,1,2,1.25,2,1.14811576400098,1
26,79,1,4,1,1,0.5,1,1.34853382999427,0
27,56,1,2,1,2,1.175,2,1.31485679699836,1
28,19,1,1,1,1,1.05,2,1.03906483399624,1
29,67,1,3,1,1,1.5,2,1.27162892000342,1
30,64,1,3,1,2,1.5,2,1.30997575599758,1
31,14,1,2,1,2,1.01,1,1.00719113800005,0
32,46,1,2,1,2,1.05,1,1.30781479200232,0
33,3,1,1,1,1,0.9,1,1.28198402399721,0
34,63,1,3,1,1,1.5,2,1.25680584999645,1
35,17,1,1,1,1,0.925,1,1.28868994399818,0
36,54,1,2,1,2,1.25,2,1.2879981340011,1
37,20,1,2,1,2,1.15,2,1.28044213699468,1
38,39,1,1,1,1,1.175,2,1.288507407,1
39,30,1,2,1,2,1.075,1,1.35747228100081,0
40,66,1,3,1,2,1.5,2,1.28954480999528,1
41,12,1,2,1,2,1.175,1,1.35816674099624,0
42,72,1,4,1,2,0.5,1,1.33834218400443,0
43,71,1,4,1,1,0.5,1,1.27809254600288,0
44,49,1,1,1,1,0.99,1,1.28450345099554,0
45,10,1,2,1,2,1.3,2,1.1143503419953,1
46,57,1,1,1,1,1.05,1,1.23282148100407,0
47,27,1,1,1,1,1.075,1,1.26683198099636,0
48,47,1,1,1,1,1.1,2,1.31028994199733,1
49,8,1,2,1,2,1.025,1,1.24144020699896,0
50,31,1,1,1,1,1.075,1,1.24334807899868,0
51,61,1,3,1,1,1.5,2,1.27411286499409,1
52,59,1,1,1,1,1.075,1,1.27421748000052,0
53,73,1,4,1,1,0.5,1,1.27069120200031,0
54,22,1,2,1,2,1.25,2,1.15782641100668,1
55,70,1,3,1,2,1.5,2,1.32928618500591,1
56,45,1,1,1,1,1.075,2,1.26960262899956,1
57,33,1,1,1,1,1.1,2,1.23769181600073,1
58,28,1,2,1,2,1.15,2,1.2780186739983,1
59,32,1,2,1,2,1.15,1,1.33589031500014,0
60,18,1,2,1,2,1.075,1,1.43735120900237,0
61,55,1,1,1,1,1.1,2,1.26996348499961,1
62,24,1,2,1,2,1.2,2,1.47695601799933,1
63,77,1,4,1,1,0.5,1,1.49892998400173,0
64,6,1,2,1,2,1.175,1,1.27210299800208,0
65,76,1,4,1,2,0.5,1,1.30370414199569,0
66,36,1,2,1,2,1.25,2,1.31517988599808,1
67,50,1,2,1,2,1.175,1,1.378219997001,0
68,7,1,1,1,1,1.075,2,1.49271843900351,1
69,21,1,1,1,1,1.05,1,2.48467516300298,0
70,51,1,1,1,1,1.05,1,1.12494919000164,0
71,9,1,1,1,1,1.1,1,1.28300085299998,0
72,53,1,1,1,1,1.1,2,1.28141135899932,1
73,40,1,2,1,2,1.175,1,1.60758802300552,0
74,11,1,1,1,1,1.1,2,1.25694614100212,1
75,42,1,2,1,2,1.175,2,1.27210839500185,1
76,37,1,1,1,1,1.1,2,1.30818285500573,1
77,48,1,2,1,2,1.25,2,1.30015447500045,1
78,65,1,3,1,1,1.5,2,1.24241821000032,1
79,2,1,2,1,2,1.125,2,1.23483944599866,1
80,62,1,3,1,2,1.5,2,1.26088911500119,1
81,146,2,3,2,2,1.5,2,1.02099041699694,1
82,117,2,1,2,1,0.99,2,1.93297309300397,1
83,127,2,1,2,1,0.75,1,1.32085821300279,0
84,118,2,2,2,2,0.99,1,1.27018217900331,0
85,143,2,3,2,1,1.5,2,1.31914561300073,1
86,139,2,1,2,1,0.9,1,1.33334110199939,0
87,158,2,4,2,2,0.5,1,1.30600679799682,0
88,113,2,1,2,1,0.975,1,1.30356319600105,0
89,101,2,1,2,1,1.1,2,1.26063352599886,1
90,123,2,1,2,1,1.01,1,1.26622288399813,0
91,137,2,1,2,1,1.05,1,1.30543280100392,0
92,97,2,1,2,1,1.125,2,1.246926849999,1
93,141,2,3,2,1,1.5,2,1.16078389000177,1
94,132,2,2,2,2,1.2,2,1.25975250100601,1
95,157,2,4,2,1,0.5,1,1.30054080300033,0
96,142,2,3,2,2,1.5,2,1.28715381400252,1
97,126,2,2,2,2,1.1,1,2.10093828800018,0
98,89,2,1,2,1,1.075,2,1.09831749499426,1
99,103,2,1,2,1,1.05,2,1.23178024400113,1
100,102,2,2,2,2,1.15,2,1.25570648499706,1
101,125,2,1,2,1,0.825,1,1.28806361299939,0
102,99,2,1,2,1,1.175,2,1.22217790799914,1
103,129,2,1,2,1,1.025,1,1.263360525998,0
104,111,2,1,2,1,1.025,2,1.25548480600264,1
105,149,2,3,2,1,1.5,2,1.13386299000558,1
106,86,2,2,2,2,1.125,2,1.17612736499723,1
107,100,2,2,2,2,1.1,2,1.25217434099613,1
108,152,2,4,2,2,0.5,1,1.26471923100326,0
109,131,2,1,2,1,0.8,1,1.18528289400274,0
110,124,2,2,2,2,1.025,1,1.33217642099771,0
111,85,2,1,2,1,1.2,2,1.24853746900044,1
112,106,2,2,2,2,1.075,2,1.33651717699831,1
113,88,2,2,2,2,1.05,1,1.30743781799538,0
114,135,2,1,2,1,0.875,1,1.19989310899837,0
115,112,2,2,2,2,1.01,1,1.17158035000466,0
116,136,2,2,2,2,1.075,2,1.26418810300675,1
117,156,2,4,2,2,0.5,1,1.24428605300636,0
118,151,2,4,2,1,0.5,1,1.22873437499948,0
119,154,2,4,2,2,0.5,1,1.19503097499546,0
120,128,2,2,2,2,1.05,2,1.22989249900274,1
121,81,2,1,2,1,1.15,2,1.95771770599822,1
122,116,2,2,2,2,0.95,1,1.13773242400202,0
123,145,2,3,2,1,1.5,2,1.21397367399913,1
124,140,2,2,2,2,0.975,1,1.31079135099571,0
125,104,2,2,2,2,1.05,2,1.32373015699704,1
126,119,2,1,2,1,0.99,2,1.39997527399828,1
127,105,2,1,2,1,0.85,1,1.2754700200021,0
128,107,2,1,2,1,0.925,1,1.27580237499933,0
129,134,2,2,2,2,1.025,2,1.32306450099713,1
130,138,2,2,2,2,0.875,1,1.48088350300532,0
131,114,2,2,2,2,0.9,1,1.27228348299832,0
132,133,2,1,2,1,0.99,1,1.3509866989989,0
133,148,2,3,2,2,1.5,2,1.26448151999648,1
134,147,2,3,2,1,1.5,2,1.26421837000089,1
135,83,2,1,2,1,1.125,2,1.23121276699385,1
136,130,2,2,2,2,0.925,1,1.25695544100017,0
137,94,2,2,2,2,1.05,2,1.28086976999475,1
138,96,2,2,2,2,1.05,2,1.31799014799617,1
139,153,2,4,2,1,0.5,1,1.26291879400378,0
140,121,2,1,2,1,1.01,2,1.21804105399497,1
141,82,2,2,2,2,1.025,2,1.03373261399975,1
142,150,2,3,2,2,1.5,2,1.02637973099627,1
143,95,2,1,2,1,0.95,1,1.26751587200124,0
144,93,2,1,2,1,1.05,2,1.20310305500607,1
145,160,2,4,2,2,0.5,1,1.24288971199712,0
146,108,2,2,2,2,1.01,2,1.26772294100374,1
147,92,2,2,2,2,0.9,1,1.30665903999761,0
148,87,2,1,2,1,1.01,2,1.2398063790024,1
149,84,2,2,2,2,0.975,1,1.24179772600473,0
150,155,2,4,2,1,0.5,1,1.29916321500059,0
151,98,2,2,2,2,1.025,1,1.34131217800314,0
152,91,2,1,2,1,0.975,1,1.31173509300424,0
153,110,2,2,2,2,1.075,2,1.34172791099991,1
154,120,2,2,2,2,0.99,2,1.3607966089985,1
155,144,2,3,2,2,1.5,2,1.29967203500564,1
156,109,2,1,2,1,1.01,1,1.54726220999873,0
157,115,2,1,2,1,1.05,2,1.31766480999795,1
158,90,2,2,2,2,0.875,1,1.25768532799702,0
159,122,2,2,2,2,0.925,1,1.25011837599595,0
160,159,2,4,2,1,0.5,1,1.23380402300245,0
161,184,1,2,3,2,0.99,1,1.02063014599844,0
162,239,1,4,3,1,0.5,1,2.33727632099908,0
163,227,1,3,3,1,1.5,2,1.28580564499862,1
164,195,1,1,3,1,0.99,1,1.27257388500584,0
165,197,1,1,3,1,1.2,2,1.25398966200009,1
166,168,1,2,3,2,1.2,2,1.10301097800402,1
167,176,1,2,3,2,1.1,2,1.30842294299509,1
168,208,1,2,3,2,1.025,1,1.28130039700045,0
169,178,1,2,3,2,1.05,1,1.30339829299919,0
170,234,1,4,3,2,0.5,1,2.37336661699374,0
171,207,1,1,3,1,1.1,2,1.26337335100106,1
172,231,1,4,3,1,0.5,1,1.38505684299889,0
173,198,1,2,3,2,1.075,1,1.23511903700273,0
174,167,1,1,3,1,1.025,2,1.26725805699971,1
175,194,1,2,3,2,1.1,1,1.24493109099421,0
176,211,1,1,3,1,0.975,1,1.25391181200393,0
177,215,1,1,3,1,1.01,1,1.2219976599954,0
178,172,1,2,3,2,1.15,2,1.26961866400234,1
179,193,1,1,3,1,1.025,1,1.26816008899914,0
180,219,1,1,3,1,1.05,1,1.24374466699373,0
181,165,1,1,3,1,1.075,1,1.22764233899943,0
182,221,1,3,3,1,1.5,2,1.15526378199866,1
183,189,1,1,3,1,1.125,1,1.25696193900512,0
184,222,1,3,3,2,1.5,2,1.28876719699474,1
185,163,1,1,3,1,1.25,2,1.26844357800292,1
186,196,1,2,3,2,1.125,2,1.41596614300215,1
187,223,1,3,3,1,1.5,2,1.29871816600644,1
188,214,1,2,3,2,1.1,1,1.41659065100248,0
189,177,1,1,3,1,1.15,1,1.27361711100093,0
190,170,1,2,3,2,1.125,1,1.2484797290017,0
191,192,1,2,3,2,1.25,2,1.28803053199954,1
192,203,1,1,3,1,1.175,2,2.19045109899889,1
193,209,1,1,3,1,1.25,2,1.16010034299688,1
194,201,1,1,3,1,1.15,2,1.24417606299539,1
195,228,1,3,3,2,1.5,2,1.27127872800338,1
196,182,1,2,3,2,1.2,1,1.41693219500303,0
197,218,1,2,3,2,0.85,1,1.27299896899785,0
198,220,1,2,3,2,1.4,2,1.27263345900428,1
199,191,1,1,3,1,0.875,1,1.31195374500385,0
200,230,1,3,3,2,1.5,2,1.28511865100154,1
201,235,1,4,3,1,0.5,1,1.33842688699951,0
202,225,1,3,3,1,1.5,2,1.30237874399609,1
203,206,1,2,3,2,1.35,2,1.27479023000342,1
204,212,1,2,3,2,1.3,2,1.25746670300578,1
205,210,1,2,3,2,0.975,1,1.34705302400107,0
206,236,1,4,3,2,0.5,1,1.32482393700047,0
207,232,1,4,3,2,0.5,1,1.32029375899583,0
208,174,1,2,3,2,1.15,1,1.27782331500202,0
209,202,1,2,3,2,1.35,2,1.30106786199758,1
210,205,1,1,3,1,1.3,2,1.29118524200021,1
211,161,1,1,3,1,1.125,1,1.3045136350047,0
212,166,1,2,3,2,1.3,2,1.43754411300324,1
213,213,1,1,3,1,1.125,2,1.26981727300154,1
214,179,1,1,3,1,0.875,1,1.24397177299397,0
215,200,1,2,3,2,1.175,1,1.30081087700091,0
216,224,1,3,3,2,1.5,2,1.23496837100538,1
217,204,1,2,3,2,1.3,1,1.32008000699716,0
218,190,1,2,3,2,1.45,2,1.29100938900228,1
219,162,1,2,3,2,1.4,2,1.52215218300262,1
220,199,1,1,3,1,1.3,2,1.26352286099427,1
221,175,1,1,3,1,0.95,1,1.27104820199747,0
222,171,1,1,3,1,1.25,2,1.27835290399526,1
223,217,1,1,3,1,1.1,1,1.24363488699601,0
224,238,1,4,3,2,0.5,1,1.2596648089966,0
225,169,1,1,3,1,1.1,2,1.21106657099881,1
226,186,1,2,3,2,0.95,1,1.23577207799826,0
227,226,1,3,3,2,1.5,2,1.29383500899712,1
228,233,1,4,3,1,0.5,1,1.18142159400304,0
229,188,1,2,3,2,1.35,2,1.23517834199447,1
230,237,1,4,3,1,0.5,1,1.21741394600394,0
231,183,1,1,3,1,1.25,2,1.26917474799848,1
232,216,1,2,3,2,1.3,2,1.26930669099966,1
233,180,1,2,3,2,1.25,1,1.29951171900029,0
234,173,1,1,3,1,1.01,1,1.24920928900247,0
235,187,1,1,3,1,1.05,1,1.29824551800266,0
236,240,1,4,3,2,0.5,1,1.25392659300269,0
237,181,1,1,3,1,1.175,2,1.28506972500327,1
238,164,1,2,3,2,1.01,1,1.0450636950045,0
239,229,1,3,3,1,1.5,2,1.07955833199958,1
240,185,1,1,3,1,1.1,1,1.23476191300142,0
241,283,2,1,4,1,0.99,2,1.0337130150001,1
242,276,2,2,4,2,0.99,1,1.07073794700409,0
243,248,2,2,4,2,1.2,2,2.17415910500131,1
244,258,2,2,4,2,1.1,2,1.33627602300112,1
245,285,2,1,4,1,0.75,1,1.35480060400005,0
246,257,2,1,4,1,0.9,1,1.28855385100178,0
247,301,2,3,4,1,1.5,2,1.23168176299805,1
248,303,2,3,4,1,1.5,2,1.20442884899967,1
249,294,2,2,4,2,1.025,1,1.24739738700009,0
250,282,2,2,4,2,1.05,2,1.26948418299435,1
251,295,2,1,4,1,0.975,2,1.28588814899558,1
252,284,2,2,4,2,1.01,1,1.25196632400184,0
253,288,2,2,4,2,1.05,1,1.299820086002,0
254,292,2,2,4,2,1.075,2,1.00730758799909,1
255,293,2,1,4,1,0.925,1,1.32090804300242,0
256,274,2,2,4,2,1.05,2,1.3107634850021,1
257,253,2,1,4,1,0.95,2,1.29343828000128,1
258,290,2,2,4,2,0.99,1,1.27590327399957,0
259,275,2,1,4,1,0.925,1,1.269623330998,0
260,256,2,2,4,2,1.025,2,1.26036510200356,1
261,277,2,1,4,1,0.95,2,1.31662714800041,1
262,267,2,1,4,1,0.95,1,1.2839443930061,0
263,266,2,2,4,2,0.925,1,1.31390333500167,0
264,244,2,2,4,2,0.95,1,1.31820704499842,0
265,287,2,1,4,1,0.975,1,1.3321984619979,0
266,273,2,1,4,1,1.175,2,1.3598795489961,1
267,251,2,1,4,1,1.15,2,1.36997261099896,1
268,297,2,1,4,1,1.1,2,1.35757119300251,1
269,270,2,2,4,2,1.1,2,1.42623585499678,1
270,298,2,2,4,2,1.025,1,1.46079738499975,0
271,241,2,1,4,1,0.825,1,1.30922312899929,0
272,310,2,3,4,2,1.5,2,1.29187368300336,1
273,309,2,3,4,1,1.5,2,1.31405109700427,1
274,264,2,2,4,2,1.05,2,1.50381576699874,1
275,299,2,1,4,1,1.025,2,1.58816838699568,1
276,255,2,1,4,1,0.975,1,1.25374553199799,0
277,260,2,2,4,2,1.05,2,1.26206756700412,1
278,269,2,1,4,1,1.125,2,1.29381004299648,1
279,281,2,1,4,1,0.825,1,1.30767383200146,0
280,311,2,4,4,1,0.5,1,1.30620929300494,0
281,302,2,3,4,2,1.5,2,1.37390397400304,1
282,250,2,2,4,2,1.025,1,1.37479017199803,0
283,315,2,4,4,1,0.5,1,1.31308914100373,0
284,242,2,2,4,2,1.025,2,1.43942443600099,1
285,300,2,2,4,2,1.01,1,1.33511329400062,0
286,306,2,3,4,2,1.5,2,1.27390087400272,1
287,280,2,2,4,2,1.05,1,1.32143157700193,0
288,261,2,1,4,1,1.075,2,1.26909241300018,1
289,305,2,3,4,1,1.5,2,1.27663037700404,1
290,307,2,3,4,1,1.5,2,1.22094535500219,1
291,262,2,2,4,2,1.125,2,1.27139284399891,1
292,319,2,4,4,1,0.5,1,1.3096807289985,0
293,313,2,4,4,1,0.5,1,1.31790075499885,0
294,320,2,4,4,2,0.5,1,1.30069548099709,0
295,312,2,4,4,2,0.5,1,1.31343147200096,0
296,304,2,3,4,2,1.5,2,1.27784680400509,1
297,252,2,2,4,2,0.975,1,1.25250160299765,0
298,243,2,1,4,1,0.975,2,1.26867463500093,1
299,291,2,1,4,1,0.9,1,1.27613210800337,0
300,247,2,1,4,1,0.95,1,1.17799625900079,0
301,265,2,1,4,1,1.01,2,1.27842719200271,1
302,278,2,2,4,2,1.05,2,1.26050225800282,1
303,279,2,1,4,1,0.975,2,1.27094503099943,1
304,249,2,1,4,1,0.975,1,1.2791108579986,0
305,271,2,1,4,1,0.925,1,1.27873436300433,0
306,317,2,4,4,1,0.5,1,1.25427535299968,0
307,259,2,1,4,1,1.01,2,1.27661130199704,1
308,289,2,1,4,1,0.95,2,1.25940565500059,1
309,308,2,3,4,2,1.5,2,1.18669627700001,1
310,314,2,4,4,2,0.5,1,1.25985165099701,0
311,316,2,4,4,2,0.5,1,1.25817118999839,0
312,296,2,2,4,2,1.05,2,1.30702886300423,1
313,246,2,2,4,2,1.05,1,1.297698948998,0
314,245,2,1,4,1,0.9,1,1.27682327899674,0
315,318,2,4,4,2,0.5,1,1.31511838000006,0
316,254,2,2,4,2,0.975,1,1.30494777100103,0
317,286,2,2,4,2,1.075,2,1.27821430600306,1
318,272,2,2,4,2,1.025,1,1.28423330700025,0
319,263,2,1,4,1,0.99,2,1.17864056899998,1
320,268,2,2,4,2,1.025,2,1.38995721399988,1
