PresOrder,TrialNumber,Background,StairNum,BlockNum,PerspNum,CurrSize,Response,ReactionTIme,Stair_Update
1,72,1,4,1,2,0.5,1,1.34165139200013,0
2,73,1,4,1,1,0.5,1,1.3780733929998,0
3,42,1,2,1,2,0.99,2,1.41558349499974,1
4,70,1,3,1,2,1.5,2,1.42317599600028,1
5,5,1,1,1,1,0.99,1,1.32043830400107,0
6,58,1,2,1,2,0.75,1,1.32586416699996,0
7,13,1,1,1,1,1.2,2,1.39695336000113,1
8,18,1,2,1,2,0.9,1,1.2958989660001,0
9,40,1,2,1,2,0.975,2,1.24565490699933,1
10,35,1,1,1,1,1.1,2,1.29994319800062,1
11,59,1,1,1,1,1.025,1,1.19437959400057,0
12,17,1,1,1,1,1.05,2,1.34688710799855,1
13,1,1,1,1,1,1.01,1,1.2802409270007,0
14,19,1,1,1,1,1.05,1,1.31770347800011,0
15,10,1,2,1,2,0.925,1,1.26727595299963,0
16,47,1,1,1,1,1.075,1,1.31541499100058,0
17,39,1,1,1,1,1.125,2,1.25260910799989,1
18,26,1,2,1,2,0.95,2,1.29095231899919,1
19,79,1,4,1,1,0.5,1,1.32301820999965,0
20,36,1,2,1,2,0.925,2,1.26266455800032,1
21,60,1,2,1,2,0.875,1,1.22155268300048,0
22,33,1,1,1,1,1.075,2,1.32656132500051,1
23,6,1,2,1,2,0.925,2,1.24166090299877,1
24,32,1,2,1,2,0.9,2,1.34640657000091,1
25,71,1,4,1,1,0.5,1,1.24724415300079,0
26,68,1,3,1,2,1.5,2,1.30375580899999,1
27,45,1,1,1,1,0.925,1,1.24277290099963,0
28,43,1,1,1,1,1.175,2,1.21835658000055,1
29,75,1,4,1,1,0.5,1,1.20058565699946,0
30,31,1,1,1,1,0.975,1,1.22115366899925,0
31,15,1,1,1,1,1.05,2,1.21412399099972,1
32,28,1,2,1,2,0.75,1,1.31193444599921,0
33,52,1,2,1,2,1.05,2,1.20379794299879,1
34,9,1,1,1,1,0.95,1,1.30907280199972,0
35,2,1,2,1,2,0.825,1,1.32174826000119,0
36,49,1,1,1,1,1.05,2,1.2792650020001,1
37,37,1,1,1,1,1.05,2,1.26960254899859,1
38,53,1,1,1,1,1.025,2,1.35963510299916,1
39,22,1,2,1,2,0.85,1,1.2349965279991,0
40,50,1,2,1,2,0.9,1,1.12440401499953,0
41,76,1,4,1,2,0.5,1,1.21167160699952,0
42,62,1,3,1,2,1.5,2,1.15747547400133,1
43,4,1,2,1,2,0.95,1,1.26290194099965,0
44,41,1,1,1,1,0.925,1,1.19939109799998,0
45,20,1,2,1,2,1.1,2,1.29676899900005,1
46,46,1,2,1,2,1.075,2,1.28696485299952,1
47,21,1,1,1,1,1.01,2,1.18779519899908,1
48,29,1,1,1,1,0.875,1,1.21560334400056,0
49,74,1,4,1,2,0.5,1,1.17002289499942,0
50,78,1,4,1,2,0.5,1,1.08264961100031,0
51,30,1,2,1,2,1.05,2,1.2243742339997,1
52,55,1,1,1,1,0.9,1,1.13779246900049,0
53,57,1,1,1,1,0.925,1,1.14996568999959,0
54,67,1,3,1,1,1.5,2,1.12138044099993,1
55,56,1,2,1,2,0.85,1,1.23701003099995,0
56,66,1,3,1,2,1.5,2,1.18167085900131,1
57,34,1,2,1,2,0.925,2,1.21493102800014,1
58,64,1,3,1,2,1.5,2,1.1032484110001,1
59,27,1,1,1,1,1.075,2,1.10108660500009,1
60,51,1,1,1,1,1.025,2,1.16536105100022,1
61,8,1,2,1,2,0.925,1,1.40144012999917,0
62,23,1,1,1,1,1.025,2,1.53093945299952,1
63,38,1,2,1,2,0.99,1,1.35586390599929,0
64,63,1,3,1,1,1.5,2,1.19782040000064,1
65,12,1,2,1,2,1.125,2,1.08806344799996,1
66,65,1,3,1,1,1.5,2,1.08704131800005,1
67,69,1,3,1,1,1.5,2,1.09996210700047,1
68,25,1,1,1,1,1.025,1,1.13645457300117,0
69,11,1,1,1,1,0.975,1,1.02827940099996,0
70,77,1,4,1,1,0.5,1,1.25244355599898,0
71,14,1,2,1,2,1.1,2,1.24590971399994,1
72,54,1,2,1,2,0.8,1,1.14014787399901,0
73,24,1,2,1,2,1.025,2,1.14776713800165,1
74,48,1,2,1,2,0.99,2,1.31631460700009,1
75,16,1,2,1,2,0.875,1,1.01491035599975,0
76,3,1,1,1,1,1.05,2,1.12084327800039,1
77,80,1,4,1,2,0.5,1,1.1598603679995,0
78,7,1,1,1,1,1.01,2,1.18594827700144,1
79,61,1,3,1,1,1.5,2,1.11688012299965,1
80,44,1,2,1,2,0.95,2,1.2489281470007,1
81,98,2,2,2,2,0.99,1,4.0742791470002,0
82,157,2,4,2,1,0.5,1,1.14846940499956,0
83,107,2,1,2,1,0.99,2,1.9127488389986,1
84,89,2,1,2,1,0.75,1,1.3276074610003,0
85,158,2,4,2,2,0.5,1,1.26963834099843,0
86,84,2,2,2,2,1.2,2,1.22935050499837,1
87,156,2,4,2,2,0.5,1,1.23994225699971,0
88,102,2,2,2,2,1.1,2,1.18561067800147,1
89,141,2,3,2,1,1.5,2,1.06692831500004,1
90,90,2,2,2,2,1.025,2,1.01053167099963,1
91,152,2,4,2,2,0.5,1,1.90900363199944,0
92,150,2,3,2,2,1.5,2,1.6336998250008,1
93,155,2,4,2,1,0.5,1,1.36734357899877,0
94,130,2,2,2,2,0.975,2,1.39303625499997,1
95,83,2,1,2,1,0.9,1,1.3326120419988,0
96,118,2,2,2,2,0.8,1,1.25921996299985,0
97,82,2,2,2,2,0.9,2,1.61168780600019,1
98,86,2,2,2,2,0.85,1,1.30987500800074,0
99,151,2,4,2,1,0.5,1,1.26199012000143,0
100,134,2,2,2,2,0.875,1,1.1484722389996,0
101,140,2,2,2,2,0.9,1,1.16036665200045,0
102,109,2,1,2,1,0.975,2,1.08374561700111,1
103,101,2,1,2,1,0.925,1,1.02111235700067,0
104,148,2,3,2,2,1.5,2,2.23389481699996,1
105,87,2,1,2,1,0.95,1,1.50576490499952,0
106,112,2,2,2,2,1.15,2,1.36878738599989,1
107,93,2,1,2,1,0.975,1,1.37319491400012,0
108,115,2,1,2,1,1.05,2,1.32012906300042,1
109,95,2,1,2,1,1.01,1,1.28616325900111,0
110,85,2,1,2,1,1.2,2,1.3262217499996,1
111,139,2,1,2,1,1.175,2,1.41807916700054,1
112,128,2,2,2,2,0.925,1,1.45165502700002,0
113,120,2,2,2,2,0.99,2,1.31398437100142,1
114,121,2,1,2,1,1.125,2,1.30344242000137,1
115,146,2,3,2,2,1.5,2,1.14087362300052,1
116,91,2,1,2,1,1.01,2,1.08951555699969,1
117,92,2,2,2,2,0.95,1,1.13615391600069,0
118,108,2,2,2,2,1.1,2,1.30134703600015,1
119,126,2,2,2,2,0.975,2,1.30050997699982,1
120,111,2,1,2,1,0.875,1,1.42161278799904,0
121,132,2,2,2,2,0.95,1,1.26169600499998,0
122,131,2,1,2,1,0.99,2,1.27645226299865,1
123,149,2,3,2,1,1.5,2,1.2361684690004,1
124,143,2,3,2,1,1.5,2,1.22745501099962,1
125,110,2,2,2,2,0.975,2,1.25184812999942,1
126,133,2,1,2,1,0.975,1,1.27414922299977,0
127,153,2,4,2,1,0.5,1,1.27375792299972,0
128,124,2,2,2,2,0.95,2,1.11362716900112,1
129,123,2,1,2,1,0.99,2,1.08481012500124,1
130,137,2,1,2,1,0.99,2,1.00909081100144,1
131,144,2,3,2,2,1.5,2,1.77155325400054,1
132,105,2,1,2,1,0.975,2,1.01196566300132,1
133,122,2,2,2,2,0.8,1,3.31325992000166,0
134,119,2,1,2,1,0.95,2,1.09998246299983,1
135,160,2,4,2,2,0.5,1,1.02388243600035,0
136,147,2,3,2,1,1.5,2,1.02130524300082,1
137,145,2,3,2,1,1.5,2,1.13820904600107,1
138,114,2,2,2,2,0.925,1,1.24777902400092,0
139,100,2,2,2,2,0.925,1,1.19002688299952,0
140,129,2,1,2,1,0.825,1,1.28305851900041,0
141,97,2,1,2,1,0.85,1,1.14128710600016,0
142,154,2,4,2,2,0.5,1,1.0984287629999,0
143,103,2,1,2,1,0.9,1,1.27234741000029,0
144,138,2,2,2,2,0.975,2,1.23123901799954,1
145,136,2,2,2,2,0.95,2,1.08647255199867,1
146,94,2,2,2,2,0.925,1,1.0067386390001,0
147,99,2,1,2,1,0.95,2,1.02110479399926,1
148,113,2,1,2,1,0.875,2,1.63037446899943,1
149,106,2,2,2,2,0.925,1,1.3591768440001,0
150,104,2,2,2,2,0.975,2,1.31490652200046,1
151,142,2,3,2,2,1.5,2,1.2942670750017,1
152,88,2,2,2,2,0.975,2,1.71615007999935,1
153,125,2,1,2,1,0.75,1,1.40009085699967,0
154,135,2,1,2,1,0.75,1,1.50667613400037,0
155,159,2,4,2,1,0.5,1,1.42401354600042,0
156,116,2,2,2,2,0.925,1,1.31919327600008,0
157,127,2,1,2,1,0.8,1,1.33295046300009,0
158,96,2,2,2,2,0.95,1,1.28111605999948,0
159,81,2,1,2,1,0.825,1,1.34117749899997,0
160,117,2,1,2,1,1.05,2,1.22739710099995,1
161,187,1,1,3,1,0.99,2,1.32743878399924,1
162,191,1,1,3,1,0.75,1,1.28247805699903,0
163,179,1,1,3,1,0.9,1,1.21039962599934,0
164,173,1,1,3,1,0.975,1,1.26253190100033,0
165,224,1,3,3,2,1.5,2,1.29590108999946,1
166,212,1,2,3,2,0.99,2,1.35195762700096,1
167,240,1,4,3,2,0.5,1,1.26593452299858,0
168,237,1,4,3,1,0.5,1,1.26513498300119,0
169,165,1,1,3,1,1.1,2,1.12751056600064,1
170,238,1,4,3,2,0.5,1,1.23718888999974,0
171,226,1,3,3,2,1.5,2,1.23756130999936,1
172,166,1,2,3,2,0.75,1,1.26832200599893,0
173,189,1,1,3,1,1.01,2,1.23554345199955,1
174,181,1,1,3,1,0.975,1,1.30876264499966,0
175,203,1,1,3,1,0.99,1,1.21832742300103,0
176,199,1,1,3,1,1.025,2,1.12605363700095,1
177,163,1,1,3,1,1.01,2,1.25907760300106,1
178,184,1,2,3,2,0.9,2,1.14777346500159,1
179,232,1,4,3,2,0.5,1,1.12861942000018,0
180,207,1,1,3,1,0.975,1,1.22936288799974,0
181,162,1,2,3,2,0.825,1,1.06845306000105,0
182,208,1,2,3,2,0.875,1,1.27670460599984,0
183,210,1,2,3,2,0.9,1,1.24336250099987,0
184,211,1,1,3,1,0.99,2,1.22501638099857,1
185,227,1,3,3,1,1.5,2,1.26020208299997,1
186,233,1,4,3,1,0.5,1,1.21894413899827,0
187,198,1,2,3,2,0.975,2,1.2865104550001,1
188,167,1,1,3,1,0.975,1,1.2378901560005,0
189,228,1,3,3,2,1.5,2,1.23703582800044,1
190,178,1,2,3,2,0.925,1,1.22382133100109,0
191,222,1,3,3,2,1.5,2,1.08815838200098,1
192,182,1,2,3,2,0.95,1,1.26409032399897,0
193,188,1,2,3,2,1.01,2,1.05341177300033,1
194,175,1,1,3,1,0.99,1,1.2372115649996,0
195,192,1,2,3,2,0.975,2,1.15608480099945,1
196,215,1,1,3,1,1.01,1,1.24874862099932,0
197,193,1,1,3,1,1.075,2,1.83252131100016,1
198,213,1,1,3,1,1.075,2,1.26700054899993,1
199,231,1,4,3,1,0.5,1,1.35501921099967,0
200,185,1,1,3,1,1.01,1,1.10427638799956,0
201,161,1,1,3,1,1.125,1,1.38279959399915,0
202,180,1,2,3,2,0.95,1,1.03358852499878,0
203,221,1,3,3,1,1.5,2,1.15433712499907,1
204,234,1,4,3,2,0.5,1,1.14848497599996,0
205,206,1,2,3,2,0.975,1,1.21664409799996,0
206,205,1,1,3,1,1.35,2,1.20932977899975,1
207,177,1,1,3,1,1.3,2,1.05854933999944,1
208,195,1,1,3,1,1.25,2,1.21074173099987,1
209,209,1,1,3,1,0.8,1,1.31598814599965,0
210,230,1,3,3,2,1.5,2,1.29971666900019,1
211,172,1,2,3,2,1.075,2,1.35564291199989,1
212,171,1,1,3,1,1.2,2,1.05584854799963,1
213,190,1,2,3,2,1.05,2,1.28815407600086,1
214,202,1,2,3,2,0.99,2,1.10131622400149,1
215,204,1,2,3,2,0.95,2,1.13188419200014,1
216,216,1,2,3,2,0.8,1,1.01592813199932,0
217,200,1,2,3,2,1.075,1,1.16979933500079,0
218,174,1,2,3,2,1.25,2,1.01976691599884,1
219,196,1,2,3,2,1.25,2,1.01949151000008,1
220,236,1,4,3,2,0.5,1,2.05534204899959,0
221,176,1,2,3,2,0.7,1,1.0071606019992,0
222,168,1,2,3,2,1.175,2,1.51795092099928,1
223,218,1,2,3,2,0.75,1,1.2877375980006,0
224,169,1,1,3,1,1.15,2,1.2802329590013,1
225,223,1,3,3,1,1.5,2,1.33464353500131,1
226,235,1,4,3,1,0.5,1,1.25928271599878,0
227,170,1,2,3,2,1.075,2,1.08247295100045,1
228,225,1,3,3,1,1.5,2,1.08084232299916,1
229,183,1,1,3,1,1.075,1,1.30431347800004,0
230,217,1,1,3,1,0.8,1,1.23725592400115,0
231,194,1,2,3,2,0.925,1,1.21412720199987,0
232,201,1,1,3,1,1.25,2,1.22442127399881,1
233,219,1,1,3,1,1.2,2,1.27328437000142,1
234,229,1,3,3,1,1.5,2,1.26622619199952,1
235,239,1,4,3,1,0.5,1,1.25946450599986,0
236,214,1,2,3,2,0.99,2,1.29075535499942,1
237,186,1,2,3,2,0.925,1,1.16085309099981,0
238,197,1,1,3,1,0.875,1,1.18815680700027,0
239,220,1,2,3,2,0.95,1,1.25271692799834,0
240,164,1,2,3,2,0.975,1,1.03574428600041,0
241,316,2,4,4,2,0.5,1,1.42741597999884,0
242,268,2,2,4,2,0.99,1,1.49895859299977,0
243,281,2,1,4,1,0.99,2,1.28151178699954,1
244,309,2,3,4,1,1.5,2,1.33603115000005,1
245,304,2,3,4,2,1.5,2,1.01977805800016,1
246,301,2,3,4,1,1.5,2,1.43844114800049,1
247,312,2,4,4,2,0.5,1,1.00696955199965,0
248,292,2,2,4,2,1.2,2,1.59751189999952,1
249,245,2,1,4,1,0.75,1,1.30949093599884,0
250,260,2,2,4,2,1.1,2,1.33977385199978,1
251,274,2,2,4,2,1.025,2,1.35095444400031,1
252,255,2,1,4,1,0.9,1,1.34630468599971,0
253,305,2,3,4,1,1.5,2,1.3031240220007,1
254,320,2,4,4,2,0.5,1,1.32402839499991,0
255,287,2,1,4,1,0.975,1,1.28034377400036,0
256,286,2,2,4,2,0.975,2,1.35193909100053,1
257,295,2,1,4,1,1.1,2,1.29142598200087,1
258,314,2,4,4,2,0.5,1,1.29793965499994,0
259,250,2,2,4,2,0.8,1,1.37154211199959,0
260,298,2,2,4,2,0.9,1,1.31853089799915,0
261,269,2,1,4,1,1.01,2,1.27658485499887,1
262,263,2,1,4,1,0.975,2,1.47445096899901,1
263,275,2,1,4,1,0.95,1,1.24844325400045,0
264,296,2,2,4,2,0.95,2,1.32123300300009,1
265,243,2,1,4,1,0.95,1,1.26121525000053,0
266,303,2,3,4,1,1.5,2,1.22962574799931,1
267,288,2,2,4,2,0.925,1,1.35864739499993,0
268,253,2,1,4,1,0.99,2,1.3706088910003,1
269,299,2,1,4,1,0.975,2,1.30262218700045,1
270,310,2,3,4,2,1.5,2,1.26139595699897,1
271,294,2,2,4,2,0.95,1,1.16873953899994,0
272,276,2,2,4,2,1.15,2,1.29785243900005,1
273,267,2,1,4,1,0.95,2,1.21500077499877,1
274,248,2,2,4,2,0.825,1,1.23169873299958,0
275,293,2,1,4,1,0.85,1,1.34455627900024,0
276,315,2,4,4,1,0.5,1,1.31723711599989,0
277,265,2,1,4,1,0.875,1,1.34588452400021,0
278,284,2,2,4,2,0.99,1,1.238291054,0
279,279,2,1,4,1,0.925,2,1.27873430999898,1
280,290,2,2,4,2,1.15,2,1.27167153600021,1
281,285,2,1,4,1,0.75,1,1.27904711799965,0
282,257,2,1,4,1,1.1,2,1.18984470400028,1
283,242,2,2,4,2,1.01,2,1.24303807899923,1
284,289,2,1,4,1,0.8,1,1.29826800500086,0
285,319,2,4,4,1,0.5,1,1.2647057489994,0
286,244,2,2,4,2,0.99,2,1.35964752399923,1
287,247,2,1,4,1,0.925,2,1.27428548399985,1
288,264,2,2,4,2,0.825,1,1.29056930799925,0
289,246,2,2,4,2,0.85,1,1.27934113799893,0
290,262,2,2,4,2,0.975,1,1.30215436800063,0
291,278,2,2,4,2,1.075,2,1.30159973300033,1
292,270,2,2,4,2,0.975,1,1.20571482800005,0
293,254,2,2,4,2,1.01,1,1.15171435500088,0
294,259,2,1,4,1,0.8,1,1.28652425699875,0
295,291,2,1,4,1,0.925,2,1.04345342999841,1
296,302,2,3,4,2,1.5,2,1.00908524599981,1
297,252,2,2,4,2,1.125,2,1.64599205400009,1
298,271,2,1,4,1,0.925,2,1.31507455099927,1
299,261,2,1,4,1,0.9,1,1.35370506199979,0
300,300,2,2,4,2,1.075,2,1.50800781100043,1
301,256,2,2,4,2,1.05,2,1.32234323700141,1
302,307,2,3,4,1,1.5,2,1.0888229430002,1
303,277,2,1,4,1,0.925,1,1.23593950899885,0
304,297,2,1,4,1,1.075,2,1.25723198000014,1
305,241,2,1,4,1,0.825,1,1.28316541899949,0
306,272,2,2,4,2,0.975,1,1.27362349400028,0
307,273,2,1,4,1,0.925,1,1.30478118300016,0
308,282,2,2,4,2,0.99,2,1.32591934300035,1
309,258,2,2,4,2,0.95,2,1.24197423100122,1
310,308,2,3,4,2,1.5,2,1.28926177300127,1
311,251,2,1,4,1,1.025,2,1.25613782399887,1
312,249,2,1,4,1,0.875,1,1.17618997699901,0
313,317,2,4,4,1,0.5,1,1.41153417200076,0
314,266,2,2,4,2,0.875,1,1.18649499100138,0
315,318,2,4,4,2,0.5,1,1.08256617199913,0
316,280,2,2,4,2,0.9,1,1.24410462299966,0
317,313,2,4,4,1,0.5,1,1.291637833001,0
318,283,2,1,4,1,0.975,2,1.19989153300048,1
319,306,2,3,4,2,1.5,2,1.00807793899912,1
320,311,2,4,4,1,0.5,1,1.02748445500038,0
