PresOrder,TrialNumber,Background,StairNum,CurrSize,Response,ReactionTIme,Stair_Update
1,68,1,2,0.99,1,1.46104910003487,0
2,9,1,3,0.99,1,1.60285659995861,0
3,27,1,3,1.2,2,1.51407439995091,1
4,79,1,1,0.99,1,1.49334370001452,0
5,82,1,1,1.2,2,1.53085779998219,1
6,67,1,1,1.1,1,2.38335072970949,0
7,87,1,3,1.1,2,1.45696165185655,1
8,95,1,4,1.5,2,1.48596025188453,1
9,16,1,1,1.15,2,1.4907926999731,1
10,4,1,1,1.125,2,1.50287849997403,1
11,91,1,4,1.5,2,1.53863600001205,1
12,92,1,4,1.5,2,1.54108130000532,1
13,22,1,1,1.1,2,1.47955307783559,1
14,80,1,2,1.2,2,1.51063037785934,1
15,10,1,1,1.025,1,1.32862222596304,0
16,45,1,3,1.025,1,1.45139707782073,0
17,41,1,2,1.1,2,1.42523530003382,1
18,61,1,1,1.075,1,1.40022467781091,0
19,5,1,2,1.025,1,1.44779222592479,0
20,56,1,2,1.05,1,1.52775939996354,0
21,13,1,1,1.075,1,1.6108349999995,0
22,6,1,3,1.05,1,1.50670269998955,0
23,63,1,3,1.075,1,1.63185705186334,0
24,71,1,2,1.075,1,2.16694085189374,0
25,96,1,4,1.5,2,1.47252599999774,1
26,102,1,5,0.5,1,1.43762989999959,0
27,53,1,2,1.1,2,1.44901920377742,1
28,42,1,3,1.1,2,1.44176840002183,1
29,51,1,3,1.075,2,1.44825199997285,1
30,100,1,4,1.5,2,1.42981032596435,1
31,55,1,1,1.1,2,2.25494637782685,1
32,36,1,3,1.05,1,1.46111029997701,0
33,21,1,3,1.075,1,1.48291492596036,0
34,88,1,1,1.075,2,1.54530280380277,1
35,15,1,3,1.1,2,1.67601369996555,1
36,90,1,3,1.075,1,1.84892590000527,0
37,73,1,1,0.925,1,1.43097770004533,0
38,29,1,2,1.075,1,1.88730419997592,0
39,34,1,1,0.95,1,1.56425910000689,0
40,26,1,2,1.1,2,1.41316350374836,1
41,97,1,4,1.5,2,1.38089740002761,1
42,74,1,2,1.075,1,1.34135455189971,0
43,49,1,1,1.175,2,1.37570779997623,1
44,7,1,1,1.05,1,1.3840210000053,0
45,86,1,2,1.1,1,1.51973130000988,0
46,54,1,3,1.075,1,1.46702979999827,0
47,19,1,1,1.1,1,1.44757149997167,0
48,14,1,2,1.125,1,1.4289998037857,0
49,85,1,1,1.2,2,1.45213059999514,1
50,50,1,2,1.25,2,1.43415759998607,1
51,110,1,5,0.5,1,1.40029370004777,0
52,64,1,1,1.15,2,1.48203979997197,1
53,12,1,3,1.1,2,1.46846760000335,1
54,62,1,2,1.25,2,1.43371719995048,1
55,20,1,2,1.125,2,1.46392452594591,1
56,24,1,3,1.075,1,1.46305889997166,0
57,103,1,5,0.5,1,1.34682610002346,0
58,58,1,1,1.075,1,1.51640457782196,0
59,8,1,2,1.125,1,1.66506369999843,0
60,3,1,3,1.075,2,1.68617780000204,1
61,106,1,5,0.5,1,1.40267810004298,0
62,84,1,3,1.1,2,1.39470160001656,1
63,18,1,3,1.075,1,1.43481160001829,0
64,89,1,2,1.3,2,1.52932689996669,1
65,107,1,5,0.5,1,1.37229185184697,0
66,38,1,2,0.95,1,1.37337420001859,0
67,48,1,3,1.075,2,1.50177172973054,1
68,40,1,1,1.075,2,1.3776416000328,1
69,47,1,2,1.25,2,1.4668537999969,1
70,98,1,4,1.5,2,1.45573119999608,1
71,70,1,1,0.99,1,1.36540752969449,0
72,105,1,5,0.5,1,1.38250519998837,0
73,32,1,2,1.175,2,1.35088059998816,1
74,72,1,3,1.1,1,1.33648930379422,0
75,104,1,5,0.5,1,1.29882919997908,0
76,17,1,2,1.1,2,1.37465099996189,1
77,81,1,3,1.175,2,1.3517092000111,1
78,83,1,2,1.1,2,1.36132717778673,1
79,69,1,3,1.15,2,1.36300660000416,1
80,93,1,4,1.5,2,1.37897580000572,1
81,28,1,1,1.15,2,1.38774219999323,1
82,65,1,2,1.1,1,1.3883111999603,0
83,37,1,1,1.05,1,1.46850130375242,0
84,2,1,2,0.975,1,1.3616121999803,0
85,31,1,1,1.1,2,1.33934417780256,1
86,109,1,5,0.5,1,1.31767150002997,0
87,35,1,2,1.175,2,1.32078449998517,1
88,57,1,3,1.025,1,1.34874765184941,0
89,46,1,1,1.1,1,1.50941295939265,0
90,59,1,2,1.05,1,1.3685381518444,0
91,99,1,4,1.5,2,1.31360365188448,1
92,101,1,5,0.5,1,1.3564927999978,0
93,25,1,1,1.125,1,1.95844349998515,0
94,75,1,3,1.1,1,1.52239769999869,0
95,78,1,3,1.2,2,1.36555350001436,1
96,1,1,1,1.2,2,1.43049490003614,1
97,52,1,1,1.175,2,1.43693150003674,1
98,23,1,2,1.125,2,1.89134499995271,1
99,39,1,3,1.175,2,1.51195685187122,1
100,11,1,2,1.125,2,1.4996903038118,1
101,43,1,1,1.05,1,1.51872000005096,0
102,33,1,3,1.01,1,1.41534599999432,0
103,77,1,2,1.1,1,1.65026530000614,0
104,44,1,2,1.125,2,2.17817432596348,1
105,94,1,4,1.5,2,1.45173432596494,1
106,108,1,5,0.5,1,1.37753170001088,0
107,60,1,3,1.125,2,1.38662970002042,1
108,66,1,3,1.1,2,1.40216215187684,1
109,30,1,3,1.1,2,1.41035199997714,1
110,76,1,1,1.15,2,1.42564099997981,1
111,206,2,4,1.5,2,1.38216109998757,1
112,111,2,1,0.99,1,1.34893370000646,0
113,211,2,5,0.5,1,1.43270929995924,0
114,159,2,1,1.2,2,1.3572087000357,1
115,125,2,3,0.99,2,1.34294679999584,1
116,119,2,3,0.75,1,1.39891739998711,0
117,131,2,3,0.9,1,1.39236200001324,0
118,172,2,2,0.99,1,1.93812212598277,0
119,213,2,5,0.5,1,1.30672360002063,0
120,148,2,2,1.2,2,1.34244902594946,1
121,181,2,2,1.1,2,1.29685439995956,1
122,144,2,1,1.1,2,1.37245270004496,1
123,186,2,1,1.025,2,1.36541970004328,1
124,193,2,2,1.025,2,1.80050040001515,1
125,147,2,1,0.975,1,1.39040895563085,0
126,170,2,3,0.975,1,1.43888170382706,0
127,189,2,1,1.01,2,1.32524357782677,1
128,138,2,1,0.975,1,1.28832789999433,0
129,123,2,1,0.99,1,1.45255499996711,0
130,160,2,2,0.975,1,1.45032489998266,0
131,112,2,2,1.01,1,1.36803962965496,0
132,196,2,2,1.025,1,1.32907190377591,0
133,143,2,3,1.1,2,1.34816870000213,1
134,158,2,3,1.01,1,1.30977280001389,0
135,176,2,3,1.05,2,1.36950172600336,1
136,174,2,1,1.01,1,1.33043529995484,0
137,153,2,1,1.025,1,1.36220527783735,0
138,173,2,3,1.01,1,1.31592810002621,0
139,132,2,1,1.075,1,1.37436042592162,0
140,191,2,3,1.075,1,1.32731055183103,0
141,139,2,2,1.05,2,1.33023850381142,1
142,134,2,3,1.3,2,1.34880580002209,1
143,214,2,5,0.5,1,1.27075010002591,0
144,130,2,2,1.05,2,1.29177880001953,1
145,121,2,2,1.01,2,1.67975439998554,1
146,126,2,1,1.25,2,1.29320060001919,1
147,201,2,4,1.5,2,1.33730680000735,1
148,167,2,3,1.25,2,1.29959772597067,1
149,146,2,3,1.25,2,1.42334880749695,1
150,202,2,4,1.5,2,1.41440020001028,1
151,127,2,2,0.9,1,1.34736540378071,0
152,205,2,4,1.5,2,1.33309350383934,1
153,137,2,3,0.85,1,1.35141517780721,0
154,185,2,3,1.075,2,1.31313535186928,1
155,190,2,2,0.925,1,1.34873570379568,0
156,187,2,2,0.925,1,1.31038348161383,0
157,140,2,3,1.025,1,1.36228170001414,0
158,133,2,2,1.025,1,1.45190459996229,0
159,200,2,3,1.05,2,1.409711351851,1
160,209,2,4,1.5,2,1.2893546000123,1
161,212,2,5,0.5,1,1.28569252969464,0
162,171,2,1,1.25,2,1.29618519998621,1
163,116,2,3,1.05,2,1.37230680376524,1
164,163,2,2,1.1,2,1.3093345000525,1
165,164,2,3,1.025,1,1.31321989995195,0
166,151,2,2,1.05,2,1.39678789995378,1
167,199,2,2,1.01,1,1.3083891000133,0
168,149,2,3,1.05,1,1.32808065181598,0
169,184,2,2,1.025,1,1.37904580001486,0
170,150,2,1,1.15,2,1.3482548778411,1
171,152,2,3,1.2,2,1.355986199982,1
172,177,2,1,1.075,1,1.93578699999489,0
173,136,2,2,1.025,1,1.34628249995876,0
174,175,2,2,1.025,1,1.28217459999723,0
175,207,2,4,1.5,2,1.30519320000894,1
176,178,2,2,1.025,1,1.31696870003361,0
177,166,2,2,1.05,1,1.36604239995359,0
178,135,2,1,1.1,2,1.32705550000537,1
179,169,2,2,1.05,1,1.28253600001335,0
180,115,2,2,1.125,2,1.5740654518595,1
181,118,2,2,1.1,2,1.42313495185226,1
182,155,2,3,0.925,1,1.33212798158638,0
183,141,2,1,1.075,2,1.39055382600054,1
184,192,2,1,0.875,1,1.31894179998199,0
185,216,2,5,0.5,1,1.35397055186331,0
186,145,2,2,1.075,2,1.33167022594716,1
187,215,2,5,0.5,1,1.27003389998572,0
188,113,2,3,1.075,2,1.27504515188048,1
189,124,2,2,1.075,2,1.32006959995488,1
190,219,2,5,0.5,1,1.27325959998416,0
191,162,2,1,0.875,1,1.29390710376902,0
192,161,2,3,1.025,2,1.33835109998472,1
193,114,2,1,1.05,2,1.27673370001139,1
194,198,2,1,0.875,1,1.33760385186179,0
195,117,2,1,1.175,2,1.32408020377625,1
196,154,2,2,1.025,2,1.75904959999025,1
197,122,2,3,0.875,1,1.3048723556567,0
198,203,2,4,1.5,2,1.32469752972247,1
199,179,2,3,0.925,1,1.28772482596105,0
200,194,2,3,1.125,2,1.29994652967434,1
201,220,2,5,0.5,1,1.27758462971542,0
202,168,2,1,1.05,2,1.26724877784727,1
203,195,2,1,1.05,2,1.25576899998123,1
204,129,2,1,1.025,2,1.21323552599642,1
205,180,2,1,1.025,1,2.88514029997168,0
206,128,2,3,1.01,2,2.00413348164875,1
207,217,2,5,0.5,1,1.33214810001664,0
208,142,2,2,1.1,2,1.31845479999902,1
209,204,2,4,1.5,2,1.35147029999644,1
210,188,2,3,0.925,1,1.25706652592635,0
211,157,2,2,1.075,2,3.47694482968654,1
212,182,2,3,1.125,2,1.33103390003089,1
213,120,2,1,0.925,1,1.29331099998672,0
214,210,2,4,1.5,2,1.30390260001877,1
215,183,2,1,1.05,2,1.43559840001399,1
216,165,2,1,1.05,2,1.36194839997916,1
217,218,2,5,0.5,1,1.32349205185892,0
218,208,2,4,1.5,2,1.36643532593735,1
219,197,2,3,0.975,1,1.39151659997879,0
220,156,2,1,1.01,1,1.35186995565891,0
