PresOrder,TrialNumber,Background,StairNum,BlockNum,PerspNum,CurrSize,Response,ReactionTIme,Stair_Update
1,61,1,3,1,1,1.5,2,1.2785421290846,1
2,34,1,2,1,2,0.99,1,1.71325844049352,0
3,71,1,4,1,1,0.5,1,1.22462666454157,0
4,75,1,4,1,1,0.5,1,1.12305694049246,0
5,60,1,2,1,2,1.2,2,1.0167564721487,1
6,50,1,2,1,2,1.1,2,1.17915478478972,1
7,69,1,3,1,1,1.5,2,1.05245516454306,1
8,47,1,1,1,1,0.99,1,1.00964528478835,0
9,9,1,1,1,1,1.2,2,1.31654057214837,1
10,15,1,1,1,1,1.1,2,1.00955805693593,1
11,63,1,3,1,1,1.5,2,1.05987994429597,1
12,79,1,4,1,1,0.5,1,1.04288594049285,0
13,38,1,2,1,2,1.025,2,1.08972611264107,1
14,66,1,3,1,2,1.5,2,1.10812406074001,1
15,37,1,1,1,1,1.025,1,1.00968270503472,0
16,43,1,1,1,1,1.05,1,1.27621848859235,0
17,77,1,4,1,1,0.5,1,1.02897860503435,0
18,19,1,1,1,1,1.075,1,1.00950951264167,0
19,70,1,3,1,2,1.5,2,1.08101127214832,1
20,80,1,4,1,2,0.5,1,1.17952160883942,0
21,45,1,1,1,1,1.1,2,1.0092320126405,1
22,8,1,2,1,2,0.975,2,1.09479302528416,1
23,55,1,1,1,1,1.075,1,1.01674666454164,0
24,16,1,2,1,2,0.8,1,1.00914842404927,0
25,26,1,2,1,2,0.9,1,1.00917634809775,0
26,35,1,1,1,1,1.1,1,1.00969684809752,0
27,32,1,2,1,2,0.95,1,1.00972361644381,0
28,3,1,1,1,1,1.125,1,1.28304354049214,0
29,65,1,3,1,1,1.5,2,1.10285904049306,1
30,24,1,2,1,2,0.99,1,1.00921020503483,0
31,27,1,1,1,1,1.25,2,1.00918894809911,1
32,54,1,2,1,2,1.01,2,1.32389139619772,1
33,44,1,2,1,2,0.99,1,1.06688201644465,0
34,76,1,4,1,2,0.5,1,1.27167648859358,0
35,72,1,4,1,2,0.5,1,1.27288171767759,0
36,46,1,2,1,2,1.01,2,1.27848836454177,1
37,33,1,1,1,1,1.175,1,1.0092841645419,0
38,5,1,1,1,1,1.3,2,1.00917978859252,1
39,73,1,4,1,1,0.5,1,1.00925641644426,0
40,57,1,1,1,1,1.3,2,1.3999234366911,1
41,25,1,1,1,1,1.175,1,1.20698084049218,0
42,74,1,4,1,2,0.5,1,1.00935348478924,0
43,18,1,2,1,2,0.99,2,1.20896940503553,1
44,40,1,2,1,2,0.85,1,1.08771904049354,0
45,29,1,1,1,1,1.2,2,1.00962898478974,1
46,62,1,3,1,2,1.5,2,1.05337014809811,1
47,78,1,4,1,2,0.5,1,1.16570461644551,0
48,11,1,1,1,1,1.175,1,1.06885121264168,0
49,1,1,1,1,1,1.175,1,1.11715348859252,0
50,36,1,2,1,2,1.1,1,1.25742188859294,0
51,51,1,1,1,1,1.2,2,1.05733824049275,1
52,14,1,2,1,2,1.3,2,1.09325504049229,1
53,21,1,1,1,1,1.2,1,1.15614134049247,0
54,59,1,1,1,1,1.25,2,1.06562794049387,1
55,13,1,1,1,1,1.175,2,1.19934422404913,1
56,23,1,1,1,1,0.95,1,1.16031716454199,0
57,41,1,1,1,1,1.35,2,1.08411784049349,1
58,68,1,3,1,2,1.5,2,1.03992694049339,1
59,2,1,2,1,2,1.3,2,1.21166444049231,1
60,6,1,2,1,2,0.75,1,1.00921009619742,0
61,64,1,3,1,2,1.5,2,1.00936134049334,1
62,4,1,2,1,2,1.2,2,1.10438217214869,1
63,17,1,1,1,1,1.35,2,1.01017316454272,1
64,20,1,2,1,2,0.8,1,1.04011321264079,0
65,28,1,2,1,2,1.075,1,1.01102118859126,0
66,48,1,2,1,2,1.3,2,1.03816228098731,1
67,58,1,2,1,2,0.75,1,1.08664959999987,0
68,22,1,2,1,2,1.25,2,1.00912231644543,1
69,49,1,1,1,1,1.15,1,1.06349732405033,0
70,7,1,1,1,1,1.175,1,1.06106494049345,0
71,31,1,1,1,1,1.175,1,1.24297081644363,0
72,10,1,2,1,2,1.2,2,1.33330919619766,1
73,53,1,1,1,1,1.2,2,1.19282911644586,1
74,67,1,3,1,1,1.5,2,1.06124919619833,1
75,56,1,2,1,2,0.85,1,1.0884283404921,0
76,52,1,2,1,2,1.075,1,1.1034497442979,0
77,39,1,1,1,1,1.2,2,1.06939028859233,1
78,42,1,2,1,2,1.25,2,1.10622534049253,1
79,30,1,2,1,2,1.2,2,1.06352152405088,1
80,12,1,2,1,2,0.875,1,1.08844712908649,0
81,118,2,2,2,2,0.99,1,1.22517354049342,0
82,137,2,1,2,1,0.99,2,1.00926143288598,1
83,98,2,2,2,2,1.2,2,1.03638646074069,1
84,160,2,4,2,2,0.5,1,1.08751091644444,0
85,121,2,1,2,1,0.75,1,1.00912774049175,0
86,150,2,3,2,2,1.5,2,1.00926384809827,1
87,105,2,1,2,1,0.9,1,1.00928761644354,0
88,106,2,2,2,2,1.1,2,1.00915200883901,1
89,93,2,1,2,1,0.975,2,1.00935141264017,1
90,135,2,1,2,1,0.925,1,1.35226884049189,0
91,102,2,2,2,2,1.025,2,1.06649322024714,1
92,144,2,3,2,2,1.5,2,1.06767334049255,1
93,120,2,2,2,2,0.975,2,1.03182017214749,1
94,124,2,2,2,2,0.8,1,1.00923048478944,0
95,143,2,3,2,1,1.5,2,1.01629686074011,1
96,119,2,1,2,1,0.95,1,1.00925186073982,0
97,145,2,3,2,1,1.5,2,1.00931668859448,1
98,90,2,2,2,2,0.9,1,1.03436339619839,0
99,159,2,4,2,1,0.5,1,1.01930206454199,0
100,157,2,4,2,1,0.5,1,1.00979802404981,0
101,128,2,2,2,2,0.95,2,1.23039256834454,1
102,149,2,3,2,1,1.5,2,1.00914069999999,1
103,97,2,1,2,1,0.975,1,1.08627673669071,0
104,130,2,2,2,2,0.925,2,1.01668897214768,1
105,85,2,1,2,1,1.05,2,1.00923291644358,1
106,95,2,1,2,1,1.01,2,1.49576780883763,1
107,136,2,2,2,2,0.875,1,1.11157178859139,0
108,158,2,4,2,2,0.5,1,1.11879887214855,0
109,141,2,3,2,1,1.5,2,1.17779088859243,1
110,116,2,2,2,2,0.9,1,1.24503821264079,0
111,113,2,1,2,1,0.975,2,1.24931246454253,1
112,146,2,3,2,2,1.5,2,1.20081851264149,1
113,99,2,1,2,1,0.95,1,1.0616098050341,0
114,147,2,3,2,1,1.5,2,1.00909251264238,1
115,103,2,1,2,1,0.975,2,1.25268368859361,1
116,114,2,2,2,2,0.925,2,1.0540064683446,1
117,87,2,1,2,1,0.975,2,1.23238524049339,1
118,86,2,2,2,2,0.9,1,1.17304961644368,0
119,100,2,2,2,2,0.925,2,1.06578124809676,1
120,83,2,1,2,1,0.95,2,1.2051612480991,1
121,153,2,4,2,1,0.5,1,1.14186082404922,0
122,92,2,2,2,2,0.9,2,1.00925849619853,1
123,111,2,1,2,1,0.9,1,1.14799688478888,0
124,131,2,1,2,1,0.925,1,1.11257054049202,0
125,88,2,2,2,2,0.875,1,1.00914030503554,0
126,151,2,4,2,1,0.5,1,1.08313078859283,0
127,108,2,2,2,2,0.925,1,1.02956151644503,0
128,122,2,2,2,2,0.75,1,1.11990259619961,0
129,148,2,3,2,2,1.5,2,1.15750796454267,1
130,155,2,4,2,1,0.5,1,1.07281552404856,0
131,96,2,2,2,2,1.075,2,1.06569348859375,1
132,156,2,4,2,2,0.5,1,1.32041416454194,0
133,134,2,2,2,2,0.8,1,1.01635364049434,0
134,91,2,1,2,1,0.95,2,1.07281861263982,1
135,133,2,1,2,1,0.925,1,1.00914980000016,0
136,107,2,1,2,1,0.975,2,1.40980588859384,1
137,152,2,4,2,2,0.5,1,1.15652066834446,0
138,81,2,1,2,1,0.925,1,1.91495469619804,0
139,82,2,2,2,2,0.95,2,1.456408340493,1
140,101,2,1,2,1,0.975,1,1.32297904049301,0
141,84,2,2,2,2,0.925,2,1.18978680883993,1
142,109,2,1,2,1,1.025,2,1.00930816454274,1
143,140,2,2,2,2,0.9,1,1.00942011264124,0
144,154,2,4,2,2,0.5,1,1.04670068859195,0
145,142,2,3,2,2,1.5,2,1.08411280883774,1
146,112,2,2,2,2,0.925,1,1.00936782024655,0
147,125,2,1,2,1,0.975,2,1.0258102607404,1
148,126,2,2,2,2,0.975,2,1.00922447214725,1
149,139,2,1,2,1,0.975,2,1.00923084809801,1
150,110,2,2,2,2,0.95,1,1.02385624429735,0
151,89,2,1,2,1,0.925,1,1.37600088478757,0
152,138,2,2,2,2,1.1,2,1.00913942908664,1
153,123,2,1,2,1,0.975,2,1.00923261644493,1
154,129,2,1,2,1,0.95,2,1.00925531644498,1
155,94,2,2,2,2,0.8,1,1.0091961847902,0
156,115,2,1,2,1,0.95,2,1.02455836454283,1
157,132,2,2,2,2,1.025,2,1.0154658885931,1
158,127,2,1,2,1,0.95,1,1.04379801264076,0
159,117,2,1,2,1,0.925,1,1.00917844809919,0
160,104,2,2,2,2,0.975,2,1.00910384809868,1
161,179,1,1,3,1,0.99,2,1.29413734049194,1
162,193,1,1,3,1,0.75,1,1.00906526074141,0
163,198,1,2,3,2,0.99,1,1.00932388859292,0
164,230,1,3,3,2,1.5,2,1.00928526074131,1
165,209,1,1,3,1,0.9,1,1.00914126454336,0
166,201,1,1,3,1,0.975,1,1.00923637214873,0
167,210,1,2,3,2,1.2,2,1.00918627214742,1
168,173,1,1,3,1,1.1,2,1.73671588859361,1
169,205,1,1,3,1,1.01,1,1.00915241264192,0
170,208,1,2,3,2,1.1,1,1.00929278478907,0
171,225,1,3,3,1,1.5,2,1.00922619619814,1
172,240,1,4,3,2,0.5,1,1.00922690503648,0
173,203,1,1,3,1,1.05,1,1.64670818859304,0
174,199,1,1,3,1,1.125,2,1.14226218859221,1
175,229,1,3,3,1,1.5,2,1.00928586454393,1
176,234,1,4,3,2,0.5,1,1.00910856834525,0
177,185,1,1,3,1,1.075,2,1.00924349999877,1
178,239,1,4,3,1,0.5,1,1.01976118859238,0
179,207,1,1,3,1,1.05,1,1.12443211644495,0
180,184,1,2,3,2,1.15,2,1.37193538859356,1
181,235,1,4,3,1,0.5,1,1.22200753669131,0
182,222,1,3,3,2,1.5,2,1.08344688859324,1
183,214,1,2,3,2,1.125,2,1.00919224049358,1
184,212,1,2,3,2,1.1,2,1.0101079885917,1
185,187,1,1,3,1,1.075,2,1.00915252404957,1
186,218,1,2,3,2,1.025,2,1.04755784809822,1
187,215,1,1,3,1,1.05,2,1.04142169619809,1
188,217,1,1,3,1,0.85,1,1.00909667214728,0
189,188,1,2,3,2,0.9,1,1.00922793669088,0
190,237,1,4,3,1,0.5,1,1.00926334049291,0
191,164,1,2,3,2,0.975,1,1.00916802405118,0
192,238,1,4,3,2,0.5,1,1.02754344429741,0
193,233,1,4,3,1,0.5,1,1.07675670503522,0
194,204,1,2,3,2,1.01,1,1.00915781644471,0
195,165,1,1,3,1,1.175,2,1.14853202404993,1
196,228,1,3,3,2,1.5,2,1.05805333669196,1
197,176,1,2,3,2,1.05,1,1.01144544049203,0
198,167,1,1,3,1,1.025,1,1.0997091164445,0
199,175,1,1,3,1,1.025,1,1.01840826454281,0
200,183,1,1,3,1,1.075,1,1.00928884049245,0
201,190,1,2,3,2,1.075,1,1.24868796454211,0
202,200,1,2,3,2,1.2,2,1.10211404429538,1
203,170,1,2,3,2,1.075,2,1.04348757214939,1
204,181,1,1,3,1,1.2,2,1.00917924049281,1
205,172,1,2,3,2,0.85,1,1.0091168645431,0
206,231,1,4,3,1,0.5,1,1.0523488569379,0
207,196,1,2,3,2,1.25,2,1.00922875693686,1
208,216,1,2,3,2,0.9,1,1.00914093669053,0
209,197,1,1,3,1,1.2,2,1.00910379999914,1
210,169,1,1,3,1,1.15,1,1.00924569619929,0
211,202,1,2,3,2,1.2,2,1.0092286164454,1
212,226,1,3,3,2,1.5,2,1.01392247338117,1
213,232,1,4,3,2,0.5,1,1.00922411264037,0
214,223,1,3,3,1,1.5,2,1.00912584809885,1
215,182,1,2,3,2,1.05,1,1.18596873669048,0
216,162,1,2,3,2,1.1,1,1.0969661645413,0
217,194,1,2,3,2,1.1,1,1.08103824049249,0
218,174,1,2,3,2,1.1,1,1.19522399999914,0
219,236,1,4,3,2,0.5,1,1.08857758098748,0
220,177,1,1,3,1,1.35,2,1.00916896454328,1
221,163,1,1,3,1,1.3,2,1.18676035693716,1
222,211,1,1,3,1,0.85,1,1.00921838859176,0
223,219,1,1,3,1,1.25,2,1.00929794049262,1
224,195,1,1,3,1,0.925,1,1.36786001264227,0
225,180,1,2,3,2,1.125,2,1.0094748885931,1
226,191,1,1,3,1,1.1,2,1.00923234429683,1
227,206,1,2,3,2,1.1,2,1.00919211264045,1
228,178,1,2,3,2,1.2,2,1.30727093669157,1
229,166,1,2,3,2,1.075,2,1.18053054049233,1
230,168,1,2,3,2,0.95,1,1.225371724051,0
231,186,1,2,3,2,0.975,1,1.009214336691,0
232,171,1,1,3,1,1.1,1,1.09248421644588,0
233,221,1,3,3,1,1.5,2,1.009121372148,1
234,213,1,1,3,1,1.25,2,1.00907381264005,1
235,224,1,3,3,2,1.5,2,1.00933492405056,1
236,192,1,2,3,2,1.175,2,1.00918561264189,1
237,220,1,2,3,2,1.05,1,1.17246146454272,0
238,161,1,1,3,1,0.95,1,1.00922931263995,0
239,227,1,3,3,1,1.5,2,1.05228689619798,1
240,189,1,1,3,1,1.175,1,1.08452613669033,0
241,271,2,1,4,1,0.99,2,1.28528856454432,1
242,317,2,4,4,1,0.5,1,1.00930251264072,0
243,248,2,2,4,2,0.99,2,1.00975734933309,1
244,265,2,1,4,1,0.75,1,1.04777253288739,0
245,292,2,2,4,2,0.75,1,1.00930128479013,0
246,286,2,2,4,2,0.9,2,1.15012399999978,1
247,262,2,2,4,2,0.825,1,1.0092557645421,0
248,243,2,1,4,1,0.9,1,1.00931689619938,0
249,309,2,3,4,1,1.5,2,1.00927353288716,1
250,282,2,2,4,2,0.875,2,1.00926763669122,1
251,254,2,2,4,2,0.85,1,1.00933566454296,0
252,304,2,3,4,2,1.5,2,1.01535088859237,1
253,306,2,3,4,2,1.5,2,1.00926616454126,1
254,291,2,1,4,1,0.975,2,1.00960205693809,1
255,285,2,1,4,1,0.925,1,1.16032156454276,0
256,289,2,1,4,1,0.95,1,1.44330728859131,0
257,305,2,3,4,1,1.5,2,1.05527520000032,1
258,316,2,4,4,2,0.5,1,1.05218972024522,0
259,287,2,1,4,1,0.975,1,1.00911114809787,0
260,252,2,2,4,2,0.875,1,1.17233114809824,0
261,319,2,4,4,1,0.5,1,1.00914804049171,0
262,302,2,3,4,2,1.5,2,1.00956396454421,1
263,256,2,2,4,2,0.925,1,1.11764451264207,0
264,279,2,1,4,1,1.05,1,1.1420949721487,0
265,272,2,2,4,2,1.15,2,1.17827352024688,1
266,303,2,3,4,1,1.5,2,1.07543618479031,1
267,250,2,2,4,2,1.125,2,1.07952550000118,1
268,311,2,4,4,1,0.5,1,1.10349868859157,0
269,308,2,3,4,2,1.5,2,1.00917858098728,1
270,300,2,2,4,2,1.075,2,1.00919356454324,1
271,245,2,1,4,1,1.25,2,1.06466468859253,1
272,301,2,3,4,1,1.5,2,1.06889148859227,1
273,310,2,3,4,2,1.5,2,1.02091116454176,1
274,293,2,1,4,1,1.15,2,1.00917496454349,1
275,261,2,1,4,1,1.1,2,1.00906660503642,1
276,255,2,1,4,1,1.05,2,1.39059798859125,1
277,251,2,1,4,1,0.825,1,1.07720844049254,0
278,295,2,1,4,1,1.01,2,1.10584159619793,1
279,294,2,2,4,2,0.925,2,1.00922344049286,1
280,314,2,4,4,2,0.5,1,1.00918434809864,0
281,253,2,1,4,1,0.99,2,1.00987476454247,1
282,267,2,1,4,1,0.975,2,1.06094113668951,1
283,273,2,1,4,1,0.95,1,1.35682124049163,0
284,278,2,2,4,2,0.75,1,1.0734517404926,0
285,246,2,2,4,2,0.9,1,1.13311364049332,0
286,281,2,1,4,1,0.975,2,1.08769844809831,1
287,297,2,1,4,1,0.95,1,1.06743794049362,0
288,318,2,4,4,2,0.5,1,1.00927974049227,0
289,263,2,1,4,1,0.975,1,1.05159307214672,0
290,312,2,4,4,2,0.5,1,1.00929762908527,0
291,260,2,2,4,2,1.1,2,1.00920371644315,1
292,276,2,2,4,2,1.05,2,1.00926278478983,1
293,307,2,3,4,1,1.5,2,1.07965663669165,1
294,274,2,2,4,2,0.75,1,1.0397397721481,0
295,266,2,2,4,2,0.95,2,1.00952706454336,1
296,269,2,1,4,1,0.99,2,1.00922434809763,1
297,257,2,1,4,1,0.95,2,1.01380584049366,1
298,264,2,2,4,2,0.9,1,1.00919588859324,0
299,258,2,2,4,2,0.925,1,1.07448974049294,0
300,299,2,1,4,1,0.85,1,1.01391444049295,0
301,268,2,2,4,2,0.975,2,1.00919688859358,1
302,288,2,2,4,2,0.925,2,1.01011094049136,1
303,242,2,2,4,2,0.85,1,1.0732870404936,0
304,298,2,2,4,2,0.9,1,1.00924674049202,0
305,247,2,1,4,1,0.9,1,1.04546387214941,0
306,270,2,2,4,2,0.95,2,1.14432441264216,1
307,280,2,2,4,2,0.9,2,1.0091613164459,1
308,315,2,4,4,1,0.5,1,1.10395696454179,0
309,244,2,2,4,2,0.85,1,1.03044408859387,0
310,275,2,1,4,1,0.99,2,1.16498294049234,1
311,320,2,4,4,2,0.5,1,1.00932781264055,0
312,241,2,1,4,1,0.95,1,1.00922540503598,0
313,284,2,2,4,2,0.95,2,1.02198061644413,1
314,290,2,2,4,2,0.875,1,1.12302844049373,0
315,313,2,4,4,1,0.5,1,1.03777924049245,0
316,259,2,1,4,1,0.95,1,1.00919128859277,0
317,296,2,2,4,2,0.95,1,1.15512254049281,0
318,283,2,1,4,1,0.99,1,1.0920145721484,0
319,249,2,1,4,1,1.05,1,1.80925180000122,0
320,277,2,1,4,1,1.2,2,1.66768767214853,1
