PresOrder,TrialNumber,Background,StairNum,BlockNum,PerspNum,CurrSize,Response,ReactionTIme,Stair_Update
1,69,2,3,1,1,1.5,2,3.5407024849992,1
2,7,2,1,1,1,0.99,2,1.34808061499643,1
3,64,2,3,1,2,1.5,2,1.04777095500322,1
4,11,2,1,1,1,0.75,2,2.72049925100146,1
5,41,2,1,1,1,0.65,1,1.26391384900489,0
6,9,2,1,1,1,0.7,1,1.10444436800026,0
7,67,2,3,1,1,1.5,2,1.01214944999811,1
8,47,2,1,1,1,0.75,1,1.2399889560038,0
9,63,2,3,1,1,1.5,2,1.25640135599679,1
10,15,2,1,1,1,0.875,1,1.18255739300366,0
11,35,2,1,1,1,0.975,1,1.35135119400366,0
12,74,2,4,1,2,0.5,1,1.24421965100191,0
13,3,2,1,1,1,1.125,2,1.02779991699936,1
14,78,2,4,1,2,0.5,1,1.15689379299874,0
15,14,2,2,1,2,0.99,2,1.2973910590008,1
16,75,2,4,1,1,0.5,1,1.0214276810002,0
17,24,2,2,1,2,0.75,1,1.19085463100055,0
18,18,2,2,1,2,0.9,1,1.48077544799889,0
19,33,2,1,1,1,1.01,2,1.09402526900521,1
20,44,2,2,1,2,0.975,2,1.2926905830027,1
21,34,2,2,1,2,0.925,1,1.06708353300201,0
22,80,2,4,1,2,0.5,1,1.04280472900427,0
23,68,2,3,1,2,1.5,2,1.08275685200351,1
24,52,2,2,1,2,0.95,1,1.1672701819989,0
25,50,2,2,1,2,0.975,1,1.20948300800228,0
26,25,2,1,1,1,0.95,1,1.14871349700115,0
27,48,2,2,1,2,1.05,1,1.10634406000463,0
28,1,2,1,1,1,1.01,2,1.16109784199944,1
29,21,2,1,1,1,0.975,2,1.10872498400568,1
30,36,2,2,1,2,1.25,2,1.75628817600227,1
31,61,2,3,1,1,1.5,2,1.2960111939974,1
32,58,2,2,1,2,1.15,2,1.31704379000439,1
33,79,2,4,1,1,0.5,1,1.25051231899852,0
34,65,2,3,1,1,1.5,2,1.05738149800163,1
35,6,2,2,1,2,1.1,2,1.33637832100067,1
36,71,2,4,1,1,0.5,1,1.06886198600114,0
37,29,2,1,1,1,0.925,1,1.28291426299984,0
38,72,2,4,1,2,0.5,1,1.24278360899916,0
39,4,2,2,1,2,1.05,2,1.2036491100007,1
40,16,2,2,1,2,0.825,1,1.42259601000114,0
41,54,2,2,1,2,1.01,2,1.36129880000226,1
42,51,2,1,1,1,1.025,2,1.10938125800021,1
43,66,2,3,1,2,1.5,2,1.39518036800291,1
44,30,2,2,1,2,0.99,1,2.14783111200086,0
45,76,2,4,1,2,0.5,1,1.30370226900413,0
46,43,2,1,1,1,0.95,2,1.02077703399846,1
47,5,2,1,1,1,0.825,1,1.26228701999935,0
48,46,2,2,1,2,1.2,2,1.0189165030024,1
49,57,2,1,1,1,0.875,1,1.08835679599724,0
50,20,2,2,1,2,1.175,2,1.13583729399397,1
51,77,2,4,1,1,0.5,1,1.39670159899833,0
52,32,2,2,1,2,0.85,1,1.34646873600286,0
53,12,2,2,1,2,1.01,2,1.30175115200109,1
54,26,2,2,1,2,0.975,1,1.19408322399977,0
55,2,2,2,1,2,1.01,1,1.12427866399958,0
56,39,2,1,1,1,1.075,2,1.50461036599881,1
57,17,2,1,1,1,0.925,1,1.12708131700492,0
58,31,2,1,1,1,0.975,2,1.30787226900429,1
59,8,2,2,1,2,1.15,2,1.18433336899761,1
60,28,2,2,1,2,1.1,2,1.19525725199492,1
61,56,2,2,1,2,1.05,1,1.01742849899892,0
62,55,2,1,1,1,0.95,2,1.21602689700376,1
63,42,2,2,1,2,0.875,1,1.01428097299504,0
64,13,2,1,1,1,0.925,1,1.01129643800232,0
65,60,2,2,1,2,1.125,2,1.01166170699435,1
66,59,2,1,1,1,0.95,1,1.03259247399546,0
67,19,2,1,1,1,0.975,2,1.01723603400023,1
68,27,2,1,1,1,0.925,2,1.066311417002,1
69,73,2,4,1,1,0.5,1,1.03253861199482,0
70,62,2,3,1,2,1.5,2,1.13633135700366,1
71,37,2,1,1,1,0.85,1,1.11612746299943,0
72,40,2,2,1,2,1.1,2,1.17891502699786,1
73,70,2,3,1,2,1.5,2,1.1239842319992,1
74,38,2,2,1,2,1.05,1,1.02104192399565,0
75,23,2,1,1,1,0.875,1,1.31859486599569,0
76,22,2,2,1,2,0.925,1,1.33566384300502,0
77,53,2,1,1,1,0.9,1,1.25845342699904,0
78,10,2,2,1,2,1.075,2,1.23483880200365,1
79,49,2,1,1,1,0.925,1,1.01969244299835,0
80,45,2,1,1,1,0.975,2,1.27624098999513,1
81,119,1,1,2,1,0.99,1,2.42806828800531,0
82,159,1,4,2,1,0.5,1,1.25978265500453,0
83,154,1,4,2,2,0.5,1,1.10795886999404,0
84,143,1,3,2,1,1.5,2,1.05664581800374,1
85,95,1,1,2,1,1.2,2,1.2508740580015,1
86,101,1,1,2,1,1.1,2,1.13902752300055,1
87,140,1,2,2,2,0.99,1,1.04834859100083,0
88,150,1,3,2,2,1.5,2,1.45033670099656,1
89,84,1,2,2,2,1.2,1,1.20084051100275,0
90,136,1,2,2,2,1.35,2,1.20250653800031,1
91,116,1,2,2,2,1.25,2,1.26082237099763,1
92,141,1,3,2,1,1.5,2,1.38042053500249,1
93,131,1,1,2,1,1.025,1,1.4775659750012,0
94,82,1,2,2,2,1.2,1,1.30065906399977,0
95,145,1,3,2,1,1.5,2,1.32426871499774,1
96,92,1,2,2,2,1.25,2,1.13651513399964,1
97,103,1,1,2,1,1.05,1,1.27001048999955,0
98,130,1,2,2,2,1.2,1,1.25327459300024,0
99,88,1,2,2,2,1.25,2,1.48723622500256,1
100,106,1,2,2,2,1.2,2,1.51767857300001,1
101,121,1,1,2,1,1.075,1,1.26651942299941,0
102,111,1,1,2,1,1.1,1,1.22640701999626,0
103,104,1,2,2,2,1.175,1,1.31506868200086,0
104,93,1,1,2,1,1.15,1,1.67022642400116,0
105,155,1,4,2,1,0.5,1,1.18155183499766,0
106,124,1,2,2,2,1.2,1,1.36067397300212,0
107,144,1,3,2,2,1.5,2,1.23661655199976,1
108,148,1,3,2,2,1.5,2,1.28207815100177,1
109,91,1,1,2,1,1.2,1,1.32011144200078,0
110,99,1,1,2,1,1.3,2,1.21227669899963,1
111,153,1,4,2,1,0.5,1,1.27155601500272,0
112,137,1,1,2,1,1.25,2,1.08563788800529,1
113,102,1,2,2,2,1.2,2,1.18742921700323,1
114,85,1,1,2,1,1.175,2,1.32477024599939,1
115,107,1,1,2,1,0.95,1,1.08954396999616,0
116,147,1,3,2,1,1.5,2,1.13467672700062,1
117,113,1,1,2,1,1.3,2,1.24403763599548,1
118,158,1,4,2,2,0.5,1,2.84542500499811,0
119,126,1,2,2,2,1.15,1,1.33704122600466,0
120,129,1,1,2,1,1.175,2,1.43610654199438,1
121,105,1,1,2,1,1.15,1,1.18042119199526,0
122,149,1,3,2,1,1.5,2,1.01545041800273,1
123,96,1,2,2,2,1.175,1,1.01755533899995,0
124,125,1,1,2,1,1.175,2,1.17088388499542,1
125,81,1,1,2,1,1.15,1,1.47642901600193,0
126,152,1,4,2,2,0.5,1,1.15475827000046,0
127,138,1,2,2,2,1.25,2,1.01957581799797,1
128,97,1,1,2,1,1.175,1,1.02028265500121,0
129,118,1,2,2,2,1.2,2,1.15557238699694,1
130,134,1,2,2,2,1.175,1,1.1760429759961,0
131,109,1,1,2,1,1.3,2,1.06645089499943,1
132,112,1,2,2,2,1.175,2,1.16446629300481,1
133,132,1,2,2,2,1.075,1,1.38404076399456,0
134,86,1,2,2,2,1.1,1,1.34530527500465,0
135,89,1,1,2,1,1.2,2,1.31707826600177,1
136,90,1,2,2,2,1.25,2,1.28269787300087,1
137,108,1,2,2,2,1.175,2,1.4087229029974,1
138,160,1,4,2,2,0.5,1,1.21800388499832,0
139,115,1,1,2,1,1.15,2,1.83412062000571,1
140,100,1,2,2,2,1.05,2,1.29235220800183,1
141,117,1,1,2,1,0.975,1,1.35459833800269,0
142,128,1,2,2,2,0.875,1,1.17729744300595,0
143,110,1,2,2,2,0.925,1,1.31574761200318,0
144,156,1,4,2,2,0.5,1,1.29703763699945,0
145,157,1,4,2,1,0.5,1,1.23197870799777,0
146,127,1,1,2,1,1.01,1,1.34343650099618,0
147,123,1,1,2,1,1.25,1,1.37908667499869,0
148,139,1,1,2,1,1.4,2,1.30233741200209,1
149,94,1,2,2,2,0.95,1,1.25155220900342,0
150,122,1,2,2,2,0.99,1,1.40322024300258,0
151,87,1,1,2,1,1.35,2,1.26955236999493,1
152,135,1,1,2,1,0.99,1,1.3188448410001,0
153,83,1,1,2,1,1.3,2,1.26817132500582,1
154,120,1,2,2,2,1.35,2,1.14113801300118,1
155,142,1,3,2,2,1.5,2,1.13007488500443,1
156,146,1,3,2,2,1.5,2,1.00886019699828,1
157,114,1,2,2,2,1.075,1,1.07899793999968,0
158,133,1,1,2,1,1.25,2,1.01335433099302,1
159,98,1,2,2,2,1.3,2,1.07132244999957,1
160,151,1,4,2,1,0.5,1,1.11789649899583,0
161,187,2,1,3,1,0.99,1,2.71963582099852,0
162,185,2,1,3,1,1.2,2,1.02052115499828,1
163,236,2,4,3,2,0.5,1,1.10859004600206,0
164,212,2,2,3,2,0.99,1,1.0292333299949,0
165,227,2,3,3,1,1.5,2,1.01381077299447,1
166,210,2,2,3,2,1.2,2,1.16353892400366,1
167,208,2,2,3,2,1.1,2,1.1317042810042,1
168,193,2,1,3,1,1.1,2,1.03179062900017,1
169,171,2,1,3,1,1.025,1,1.03367947099468,0
170,226,2,3,3,2,1.5,2,1.0104234840037,1
171,232,2,4,3,2,0.5,1,1.01991041399742,0
172,191,2,1,3,1,1.05,2,1.02140030199371,1
173,221,2,3,3,1,1.5,2,1.02062766500603,1
174,216,2,2,3,2,1.025,2,1.12677744099346,1
175,165,2,1,3,1,1.01,2,1.02021290300036,1
176,204,2,2,3,2,0.975,2,1.30196155500016,1
177,228,2,3,3,2,1.5,2,1.06924139799958,1
178,205,2,1,3,1,0.9,1,1.0137018480018,0
179,170,2,2,3,2,0.8,1,1.06420978900132,0
180,179,2,1,3,1,0.95,2,1.13590141799796,1
181,238,2,4,3,2,0.5,1,1.42764859699673,0
182,220,2,2,3,2,0.9,2,1.29265944400686,1
183,181,2,1,3,1,0.7,1,1.152862859999,0
184,196,2,2,3,2,0.85,1,1.06217442599882,0
185,199,2,1,3,1,0.75,1,1.12438770900189,0
186,164,2,2,3,2,0.875,2,1.21065547599574,1
187,198,2,2,3,2,0.85,2,1.10079132100509,1
188,230,2,3,3,2,1.5,2,1.00802861699776,1
189,239,2,4,3,1,0.5,1,1.01484656100365,0
190,201,2,1,3,1,1.25,2,1.01430071600043,1
191,163,2,1,3,1,0.825,1,1.10668384099699,0
192,178,2,2,3,2,0.75,1,1.12205363099929,0
193,168,2,2,3,2,0.825,1,1.00985239599686,0
194,169,2,1,3,1,0.95,2,1.4798427909991,1
195,173,2,1,3,1,0.925,1,1.11718276800093,0
196,183,2,1,3,1,0.95,1,1.02042734800489,0
197,177,2,1,3,1,1.25,2,1.02054674499959,1
198,192,2,2,3,2,0.9,1,1.1864180679986,0
199,162,2,2,3,2,1.25,2,1.16836058999615,1
200,224,2,3,3,2,1.5,2,1.04301952200331,1
201,161,2,1,3,1,1.2,2,1.11305437499686,1
202,214,2,2,3,2,0.6,1,1.0426227719945,0
203,176,2,2,3,2,1.2,2,1.14093079399754,1
204,189,2,1,3,1,0.8,1,1.11397033899993,0
205,188,2,2,3,2,0.65,1,1.11739298199973,0
206,211,2,1,3,1,1.025,2,1.12373509299505,1
207,175,2,1,3,1,0.975,2,1.1132520070023,1
208,203,2,1,3,1,0.85,1,1.10319542899379,0
209,218,2,2,3,2,1.125,1,1.20365797599516,0
210,223,2,3,3,1,1.5,2,1.06953859599889,1
211,233,2,4,3,1,0.5,1,1.25243081399822,0
212,219,2,1,3,1,0.975,2,1.29307168500236,1
213,215,2,1,3,1,0.975,1,1.46076238700334,0
214,237,2,4,3,1,0.5,1,1.50135284200223,0
215,180,2,2,3,2,1.35,2,1.2680009579999,1
216,209,2,1,3,1,0.825,1,1.15462015500088,0
217,195,2,1,3,1,1.075,2,1.22976947400457,1
218,207,2,1,3,1,0.875,1,1.38332547799655,0
219,234,2,4,3,2,0.5,1,1.18455015300424,0
220,206,2,2,3,2,1.3,2,1.48248628599686,1
221,172,2,2,3,2,0.6,1,1.28710696499911,0
222,166,2,2,3,2,1.25,2,1.28721217300335,1
223,194,2,2,3,2,0.65,1,1.63902300599875,0
224,184,2,2,3,2,1.1,2,1.23313237699767,1
225,182,2,2,3,2,0.925,1,1.31745992699871,0
226,186,2,2,3,2,1.175,2,1.37735100399732,1
227,202,2,2,3,2,0.7,1,1.31453852800041,0
228,200,2,2,3,2,1.05,2,1.26505723699665,1
229,240,2,4,3,2,0.5,1,1.2639804040009,0
230,225,2,3,3,1,1.5,2,1.5112869959994,1
231,174,2,2,3,2,0.99,2,1.39685370499501,1
232,217,2,1,3,1,0.975,2,1.14865721200476,1
233,213,2,1,3,1,0.975,2,1.75454415599961,1
234,167,2,1,3,1,0.975,2,1.32747797000047,1
235,229,2,3,3,1,1.5,2,1.24347440999554,1
236,222,2,3,3,2,1.5,2,1.30463455499557,1
237,231,2,4,3,1,0.5,1,1.22888725100347,0
238,190,2,2,3,2,0.95,1,1.15014628900099,0
239,235,2,4,3,1,0.5,1,1.08144884899957,0
240,197,2,1,3,1,0.925,2,1.09688941200147,1
241,297,1,1,4,1,0.99,2,1.82000760300434,1
242,277,1,1,4,1,0.75,1,1.33284035899851,0
243,285,1,1,4,1,0.9,1,1.08590760300285,0
244,265,1,1,4,1,0.975,2,1.10663240400027,1
245,306,1,3,4,2,1.5,2,1.11260098099592,1
246,264,1,2,4,2,0.99,1,1.36746165099612,0
247,266,1,2,4,2,1.2,1,1.48205138499907,0
248,252,1,2,4,2,1.35,2,1.37644462600292,1
249,250,1,2,4,2,1.25,1,1.95511984900077,0
250,258,1,2,4,2,1.3,2,1.18167469199398,1
251,316,1,4,4,2,0.5,1,1.15960600900144,0
252,298,1,2,4,2,1.25,1,1.27785351200146,0
253,241,1,1,4,1,0.925,1,1.53303205699922,0
254,294,1,2,4,2,1.3,2,1.29367350299435,1
255,246,1,2,4,2,1.25,2,1.25853795399598,1
256,254,1,2,4,2,1.2,1,1.01161779700487,0
257,275,1,1,4,1,0.95,1,1.5314666100021,0
258,242,1,2,4,2,1.2,1,1.23998820599809,0
259,296,1,2,4,2,1.25,2,1.16780437000125,1
260,318,1,4,4,2,0.5,1,1.0417479050011,0
261,261,1,1,4,1,0.975,1,1.12973661499564,0
262,290,1,2,4,2,1.2,1,1.14301405399601,0
263,273,1,1,4,1,1.05,2,1.02059098899917,1
264,262,1,2,4,2,1.2,1,1.53496293000353,0
265,270,1,2,4,2,1.3,2,1.23432018099993,1
266,301,1,3,4,1,1.5,2,1.21973304099811,1
267,257,1,1,4,1,1.01,1,1.16792811300547,0
268,253,1,1,4,1,1.2,2,1.21144738799921,1
269,303,1,3,4,1,1.5,2,1.08371643000282,1
270,272,1,2,4,2,1.25,2,1.12252166999679,1
271,320,1,4,4,2,0.5,1,1.12043803399865,0
272,317,1,4,4,1,0.5,1,1.06887308799924,0
273,315,1,4,4,1,0.5,1,1.1312776220002,0
274,249,1,1,4,1,1.175,2,1.20622363500297,1
275,304,1,3,4,2,1.5,2,1.22450174000551,1
276,268,1,2,4,2,1.25,1,1.1721165439958,0
277,267,1,1,4,1,1.125,1,1.26370348500495,0
278,271,1,1,4,1,1.4,2,1.18614318999607,1
279,244,1,2,4,2,1.3,1,1.16254862400092,0
280,300,1,2,4,2,1.125,1,1.11154402299871,0
281,289,1,1,4,1,1.35,2,1.05998008700408,1
282,283,1,1,4,1,0.75,1,1.02056212099706,0
283,269,1,1,4,1,1.3,2,1.26114730999689,1
284,248,1,2,4,2,1.35,2,1.22045812800206,1
285,245,1,1,4,1,1.125,1,1.22064713500004,0
286,295,1,1,4,1,1.35,1,1.12610595199658,0
287,314,1,4,4,2,0.5,1,1.17225015899749,0
288,255,1,1,4,1,0.6,1,1.03187270600029,0
289,247,1,1,4,1,1.5,2,1.01509864500258,1
290,286,1,2,4,2,1.3,2,1.06004132000089,1
291,305,1,3,4,1,1.5,2,1.03488689700316,1
292,280,1,2,4,2,1.3,2,1.24487246700301,1
293,287,1,1,4,1,1.5,2,1.05289049199928,1
294,276,1,2,4,2,1.3,2,1.18882151199796,1
295,309,1,3,4,1,1.5,2,1.13416340800177,1
296,310,1,3,4,2,1.5,2,1.02014878599584,1
297,308,1,3,4,2,1.5,2,1.09998187599558,1
298,274,1,2,4,2,1.2,1,1.10384326399799,0
299,291,1,1,4,1,0.7,1,1.02023241899587,0
300,278,1,2,4,2,1.3,2,1.1512225080005,1
301,319,1,4,4,1,0.5,1,1.28532987100334,0
302,307,1,3,4,1,1.5,2,1.01594561299862,1
303,284,1,2,4,2,1.3,2,1.12879496900132,1
304,279,1,1,4,1,1.45,2,1.01128704299481,1
305,256,1,2,4,2,1.25,2,1.25526629600063,1
306,292,1,2,4,2,1.2,2,1.35112315299921,1
307,311,1,4,4,1,0.5,1,1.43514914499974,0
308,259,1,1,4,1,1.4,2,1.32912932999898,1
309,312,1,4,4,2,0.5,1,1.23030683700199,0
310,263,1,1,4,1,0.8,1,1.30189720800263,0
311,243,1,1,4,1,1.125,2,1.28461518300173,1
312,281,1,1,4,1,1.3,2,1.1495217299962,1
313,260,1,2,4,2,1.2,1,1.46884866300388,0
314,313,1,4,4,1,0.5,1,1.46535456399579,0
315,282,1,2,4,2,1.2,1,1.53686718700192,0
316,293,1,1,4,1,0.825,1,1.17389913499937,0
317,302,1,3,4,2,1.5,2,1.15291943000193,1
318,299,1,1,4,1,1.2,2,1.31511675799993,1
319,288,1,2,4,2,1.2,1,1.4971273379997,0
320,251,1,1,4,1,1.1,2,1.35742133399617,1
