PresOrder,TrialNumber,Background,StairNum,BlockNum,PerspNum,CurrSize,Response,ReactionTIme,Stair_Update
1,78,1,4,1,2,0.5,1,1.28992403699885,0
2,47,1,1,1,1,0.99,2,1.26389223500155,1
3,36,1,2,1,2,0.99,2,1.02067670599718,1
4,19,1,1,1,1,0.75,1,1.42322045399851,0
5,52,1,2,1,2,0.75,1,1.3031471989998,0
6,23,1,1,1,1,0.9,1,1.29383692500051,0
7,55,1,1,1,1,0.975,2,1.10960742399766,1
8,62,1,3,1,2,1.5,2,1.27520513799755,1
9,73,1,4,1,1,0.5,1,1.35706407500038,0
10,9,1,1,1,1,0.925,2,1.24889461000203,1
11,7,1,1,1,1,0.9,2,1.27244311300092,1
12,41,1,1,1,1,0.85,1,1.09607623199918,0
13,22,1,2,1,2,0.9,1,1.08414661800271,0
14,79,1,4,1,1,0.5,1,1.25910896400092,0
15,40,1,2,1,2,0.975,2,1.10698639299881,1
16,71,1,4,1,1,0.5,1,1.10332501399898,0
17,18,1,2,1,2,0.925,1,1.22827155500272,0
18,1,1,1,1,1,0.875,1,1.00705560500137,0
19,14,1,2,1,2,0.95,1,1.23927406599978,0
20,6,1,2,1,2,0.975,1,1.05021101700186,0
21,39,1,1,1,1,0.925,1,1.23095533499873,0
22,17,1,1,1,1,1.1,2,1.01147898499767,1
23,3,1,1,1,1,1.075,2,1.22394072600218,1
24,68,1,3,1,2,1.5,2,1.1676224010007,1
25,60,1,2,1,2,1.05,1,1.21835153600114,0
26,29,1,1,1,1,0.8,1,1.26708821600187,0
27,27,1,1,1,1,0.95,2,1.21051910499955,1
28,56,1,2,1,2,1.25,2,1.0995357560023,1
29,61,1,3,1,1,1.5,2,1.24262974000158,1
30,49,1,1,1,1,0.9,1,1.30597116299759,0
31,31,1,1,1,1,0.925,1,1.24954853800227,0
32,66,1,3,1,2,1.5,2,1.01352503100134,1
33,45,1,1,1,1,0.95,2,1.1344058470022,1
34,57,1,1,1,1,0.925,1,1.22695101800127,0
35,54,1,2,1,2,1.15,2,1.10006474299735,1
36,16,1,2,1,2,1.1,1,1.00999771200077,0
37,30,1,2,1,2,1.3,2,1.00716421700054,1
38,37,1,1,1,1,0.925,2,1.0205972219992,1
39,8,1,2,1,2,1.125,2,1.13317162800013,1
40,58,1,2,1,2,1.1,2,1.09807535300206,1
41,75,1,4,1,1,0.5,1,1.23938457599797,0
42,70,1,3,1,2,1.5,2,1.06371320900143,1
43,32,1,2,1,2,0.75,1,1.25278539900319,0
44,24,1,2,1,2,1.3,2,1.0101356189989,1
45,25,1,1,1,1,1.01,2,1.20597092699973,1
46,26,1,2,1,2,0.8,1,1.12644479200026,0
47,2,1,2,1,2,1.05,1,1.12333046399726,0
48,43,1,1,1,1,0.9,1,1.05630514999939,0
49,4,1,2,1,2,1.075,1,1.22289630700106,0
50,21,1,1,1,1,0.95,2,1.1202469480013,1
51,76,1,4,1,2,0.5,1,1.25330267499885,0
52,69,1,3,1,1,1.5,2,1.14042280899957,1
53,5,1,1,1,1,0.9,1,1.16928941800143,0
54,64,1,3,1,2,1.5,2,1.21265117599978,1
55,74,1,4,1,2,0.5,1,1.23448918499707,0
56,48,1,2,1,2,1.075,2,1.26077311199697,1
57,20,1,2,1,2,1.3,2,1.13048543100012,1
58,51,1,1,1,1,0.95,2,1.15998315399702,1
59,80,1,4,1,2,0.5,1,1.2429221679995,0
60,12,1,2,1,2,1.3,2,1.00794862600014,1
61,72,1,4,1,2,0.5,1,1.08351285699973,0
62,63,1,3,1,1,1.5,2,1.20154252800057,1
63,65,1,3,1,1,1.5,2,1.05141453300166,1
64,34,1,2,1,2,0.875,1,1.02062176499749,0
65,59,1,1,1,1,0.925,1,1.21947425600229,0
66,11,1,1,1,1,0.925,1,1.07914883200283,0
67,50,1,2,1,2,1.05,1,1.13734557299904,0
68,28,1,2,1,2,1.05,1,1.24344276199918,0
69,15,1,1,1,1,0.925,1,1.06088326700046,0
70,67,1,3,1,1,1.5,2,1.04656157099816,1
71,42,1,2,1,2,1.1,1,1.11027352699966,0
72,53,1,1,1,1,0.925,1,1.12184744499973,0
73,33,1,1,1,1,0.925,1,1.26163826699849,0
74,46,1,2,1,2,1.175,2,1.02225079500204,1
75,44,1,2,1,2,1.075,1,1.02003364700067,0
76,13,1,1,1,1,0.925,1,1.01902437099852,0
77,10,1,2,1,2,1.125,2,1.01994348900189,1
78,35,1,1,1,1,0.925,1,1.01885822799886,0
79,77,1,4,1,1,0.5,1,1.00687271999777,0
80,38,1,2,1,2,1.1,1,1.01464914700045,0
81,151,2,4,2,1,0.5,1,2.02513802199974,0
82,118,2,2,2,2,0.99,2,1.46621274999779,1
83,122,2,2,2,2,0.75,1,1.29725988199789,0
84,144,2,3,2,2,1.5,2,1.30323889800275,1
85,153,2,4,2,1,0.5,1,1.25994353699934,0
86,105,2,1,2,1,0.99,2,1.2507090500003,1
87,81,2,1,2,1,0.75,1,1.27326811300009,0
88,141,2,3,2,1,1.5,2,1.24806590599837,1
89,147,2,3,2,1,1.5,2,1.25684209199972,1
90,128,2,2,2,2,0.9,1,1.13681568500033,0
91,106,2,2,2,2,0.975,2,1.24578576799831,1
92,115,2,1,2,1,0.9,1,1.25139321299866,0
93,146,2,3,2,2,1.5,2,1.16770544499741,1
94,86,2,2,2,2,0.925,1,1.24564081200151,0
95,87,2,1,2,1,0.975,2,1.02936529200088,1
96,89,2,1,2,1,0.925,2,1.00925303799886,1
97,138,2,2,2,2,0.95,1,1.00826938200044,0
98,98,2,2,2,2,0.975,1,1.12788805899982,0
99,112,2,2,2,2,1.05,2,1.22896714799936,1
100,100,2,2,2,2,1.01,1,1.09351991199946,0
101,148,2,3,2,2,1.5,2,1.12339222700029,1
102,127,2,1,2,1,0.9,2,1.12176821999674,1
103,108,2,2,2,2,1.2,2,1.03855903600197,1
104,104,2,2,2,2,1.175,2,1.23324165899976,1
105,92,2,2,2,2,1.125,2,1.2854346239983,1
106,84,2,2,2,2,1.01,1,1.30691954400027,0
107,94,2,2,2,2,1.175,2,1.27960109699779,1
108,157,2,4,2,1,0.5,1,1.24671745900196,0
109,99,2,1,2,1,0.85,2,1.13520532099938,1
110,129,2,1,2,1,0.8,1,1.12930164099816,0
111,142,2,3,2,2,1.5,2,1.31822998600182,1
112,156,2,4,2,2,0.5,1,1.13252858800115,0
113,143,2,3,2,1,1.5,2,1.23316004699882,1
114,91,2,1,2,1,0.825,1,1.26535331600098,0
115,117,2,1,2,1,0.85,1,1.2950066739977,0
116,116,2,2,2,2,1.025,1,1.15611601300043,0
117,149,2,3,2,1,1.5,2,1.11812104399723,1
118,123,2,1,2,1,1.05,2,1.14971423099996,1
119,83,2,1,2,1,0.875,1,1.29698868600099,0
120,150,2,3,2,2,1.5,2,1.15003594899827,1
121,113,2,1,2,1,1.025,2,1.21797446699929,1
122,131,2,1,2,1,0.875,1,1.26676102900092,0
123,133,2,1,2,1,0.9,2,1.27403486800176,1
124,130,2,2,2,2,1.05,1,1.24932984199768,0
125,82,2,2,2,2,1.25,2,1.10456772900216,1
126,145,2,3,2,1,1.5,2,1.17548378999709,1
127,93,2,1,2,1,0.875,1,1.10414961900096,0
128,103,2,1,2,1,0.9,1,1.24193969200132,0
129,124,2,2,2,2,1.075,2,1.22724320899943,1
130,107,2,1,2,1,0.95,2,1.03776596800162,1
131,152,2,4,2,2,0.5,1,1.00996035400021,0
132,140,2,2,2,2,0.875,1,1.35018741699969,0
133,139,2,1,2,1,0.925,2,1.41824921900115,1
134,96,2,2,2,2,1.025,2,1.20274796000012,1
135,85,2,1,2,1,0.875,2,1.01959955100028,1
136,102,2,2,2,2,0.85,1,1.11692220399709,0
137,111,2,1,2,1,0.75,1,1.07648016800158,0
138,159,2,4,2,1,0.5,1,1.2590016580034,0
139,154,2,4,2,2,0.5,1,1.07927309300067,0
140,125,2,1,2,1,0.8,1,1.14267500900314,0
141,101,2,1,2,1,0.975,2,1.16292287499891,1
142,137,2,1,2,1,0.875,1,1.27004959800252,0
143,90,2,2,2,2,1.175,2,1.00898067099843,1
144,109,2,1,2,1,0.875,2,1.0076185220023,1
145,97,2,1,2,1,0.8,1,1.20741444399755,0
146,126,2,2,2,2,1.15,2,1.28833801800283,1
147,110,2,2,2,2,0.95,1,1.01997557399955,0
148,155,2,4,2,1,0.5,1,1.01970887300195,0
149,114,2,2,2,2,1.05,2,1.24068925900065,1
150,120,2,2,2,2,1.01,1,1.06709755300108,0
151,95,2,1,2,1,0.95,2,1.13005979399895,1
152,132,2,2,2,2,1.01,1,1.08295480800007,0
153,88,2,2,2,2,1.05,1,1.03145650900115,0
154,136,2,2,2,2,1.1,2,1.31324984099774,1
155,135,2,1,2,1,0.85,2,1.1426780590009,1
156,119,2,1,2,1,0.8,1,1.12162379800066,0
157,160,2,4,2,2,0.5,1,1.06974696299949,0
158,134,2,2,2,2,1.025,1,1.02115588000015,0
159,158,2,4,2,2,0.5,1,2.89296379100051,0
160,121,2,1,2,1,0.825,1,1.21089248600038,0
161,218,1,2,3,2,0.99,1,1.00698333499895,0
162,238,1,4,3,2,0.5,1,1.02063646600072,0
163,171,1,1,3,1,0.99,2,1.28678336300072,1
164,165,1,1,3,1,0.75,1,1.2611673140018,0
165,202,1,2,3,2,1.2,2,1.11503404099858,1
166,205,1,1,3,1,0.9,1,1.01875302100234,0
167,199,1,1,3,1,0.975,2,1.1416320190001,1
168,162,1,2,3,2,1.1,2,1.22685018199991,1
169,224,1,3,3,2,1.5,2,1.0287018789968,1
170,203,1,1,3,1,0.925,2,1.06238438999935,1
171,176,1,2,3,2,1.025,1,1.17352833100085,0
172,223,1,3,3,1,1.5,2,1.03150306099997,1
173,211,1,1,3,1,0.9,1,1.06532108299871,0
174,220,1,2,3,2,1.05,1,1.11036676400181,0
175,219,1,1,3,1,0.925,2,1.09223404599834,1
176,179,1,1,3,1,0.9,1,1.1629504090015,0
177,212,1,2,3,2,1.075,1,1.10295825900175,0
178,166,1,2,3,2,1.1,2,1.07021537899709,1
179,208,1,2,3,2,1.075,1,1.1018614320019,0
180,186,1,2,3,2,1.1,2,1.02857932400002,1
181,187,1,1,3,1,0.925,1,1.16700463300003,0
182,198,1,2,3,2,1.075,1,1.01138134699795,0
183,217,1,1,3,1,0.95,1,1.04354748500191,0
184,196,1,2,3,2,1.1,1,1.00900485999955,0
185,222,1,3,3,2,1.5,2,1.50973430199883,1
186,206,1,2,3,2,1.125,2,1.33147703000213,1
187,230,1,3,3,2,1.5,2,1.09418466999705,1
188,227,1,3,3,1,1.5,2,1.29315452299852,1
189,185,1,1,3,1,1.125,2,1.25120357899868,1
190,234,1,4,3,2,0.5,1,1.32456008900044,0
191,161,1,1,3,1,1.1,2,1.22232195700053,1
192,194,1,2,3,2,1.1,2,1.15758454499883,1
193,215,1,1,3,1,1.075,2,1.18585894699936,1
194,188,1,2,3,2,1.1,1,1.13343001600151,0
195,168,1,2,3,2,1.125,1,1.31370370100194,0
196,189,1,1,3,1,0.95,1,1.23723321099897,0
197,173,1,1,3,1,1.075,2,1.24571074399864,1
198,204,1,2,3,2,1.25,2,1.26270295200084,1
199,239,1,4,3,1,0.5,1,1.08477427599792,0
200,178,1,2,3,2,1.25,2,1.22894352000003,1
201,237,1,4,3,1,0.5,1,1.23784091099878,0
202,240,1,4,3,2,0.5,1,1.02371896100158,0
203,169,1,1,3,1,0.95,1,1.22781548700004,0
204,226,1,3,3,2,1.5,2,1.10962567100069,1
205,216,1,2,3,2,1.25,2,1.10679240399986,1
206,210,1,2,3,2,0.99,1,1.16758003699942,0
207,163,1,1,3,1,0.975,2,1.18819669000004,1
208,233,1,4,3,1,0.5,1,1.04570297100145,0
209,183,1,1,3,1,0.95,1,1.20493331100079,0
210,184,1,2,3,2,1.125,1,1.02173978999781,0
211,236,1,4,3,2,0.5,1,1.01975855099954,0
212,195,1,1,3,1,0.95,1,1.20123041099941,0
213,228,1,3,3,2,1.5,2,1.10756480599957,1
214,167,1,1,3,1,0.975,1,1.29819198300174,0
215,214,1,2,3,2,1.3,2,1.03573849299937,1
216,164,1,2,3,2,1.25,2,1.01140290699914,1
217,175,1,1,3,1,0.99,2,1.2450207030015,1
218,201,1,1,3,1,0.99,1,1.06855522999831,0
219,193,1,1,3,1,1.15,2,1.76379096100209,1
220,172,1,2,3,2,0.975,1,1.23101018599846,0
221,213,1,1,3,1,1.125,2,1.27179785800035,1
222,209,1,1,3,1,1.1,2,1.25345418600045,1
223,225,1,3,3,1,1.5,2,1.09427011299704,1
224,181,1,1,3,1,0.875,1,1.01967158700063,0
225,232,1,4,3,2,0.5,1,1.13473999000053,0
226,231,1,4,3,1,0.5,1,1.0323054679975,0
227,177,1,1,3,1,0.99,2,1.21719320400007,1
228,197,1,1,3,1,0.95,1,1.04808414499712,0
229,182,1,2,3,2,1.175,2,1.13648675399963,1
230,221,1,3,3,1,1.5,2,1.07070017300066,1
231,207,1,1,3,1,0.975,1,1.01294575299835,0
232,191,1,1,3,1,1.01,2,1.15055268500146,1
233,235,1,4,3,1,0.5,1,1.02051377799944,0
234,190,1,2,3,2,1.15,2,1.02066709500286,1
235,180,1,2,3,2,1.125,1,1.27528999999777,0
236,229,1,3,3,1,1.5,2,1.03357060199778,1
237,170,1,2,3,2,1.175,2,1.15451342400047,1
238,200,1,2,3,2,1.175,2,1.26432533400293,1
239,174,1,2,3,2,1.05,1,1.10762777899799,0
240,192,1,2,3,2,1.15,2,1.24101844899997,1
241,266,2,2,4,2,0.99,2,1.01993170100104,1
242,312,2,4,4,2,0.5,1,1.25434334999954,0
243,318,2,4,4,2,0.5,1,1.10772190300122,0
244,246,2,2,4,2,0.75,1,1.22551569999996,0
245,273,2,1,4,1,0.99,2,1.15351386600014,1
246,305,2,3,4,1,1.5,2,1.02893581799799,1
247,257,2,1,4,1,0.75,1,1.01011545299843,0
248,288,2,2,4,2,0.9,1,1.23161011900083,0
249,260,2,2,4,2,0.975,1,1.0081114329987,0
250,253,2,1,4,1,0.9,1,1.03273079499922,0
251,300,2,2,4,2,1.1,2,1.11237469700063,1
252,274,2,2,4,2,1.01,1,1.15029172800132,0
253,307,2,3,4,1,1.5,2,1.11328208600025,1
254,304,2,3,4,2,1.5,2,1.05618006499935,1
255,258,2,2,4,2,1.05,1,1.01623064500018,0
256,254,2,2,4,2,1.125,2,1.05222274099651,1
257,282,2,2,4,2,1.075,1,1.26759817300263,0
258,270,2,2,4,2,1.125,2,1.02907400800177,1
259,287,2,1,4,1,0.975,2,1.01504803200078,1
260,284,2,2,4,2,1.1,2,1.04619160199945,1
261,316,2,4,4,2,0.5,1,1.11887249799838,0
262,294,2,2,4,2,1.075,2,1.0362146860025,1
263,249,2,1,4,1,0.925,2,1.13285260500197,1
264,247,2,1,4,1,0.9,1,1.11208926700056,0
265,256,2,2,4,2,1.05,2,1.25490166300006,1
266,319,2,4,4,1,0.5,1,1.01970792599968,0
267,297,2,1,4,1,0.925,2,1.00696717499886,1
268,268,2,2,4,2,0.8,1,1.01560782500019,0
269,290,2,2,4,2,0.8,1,1.01318027099842,0
270,265,2,1,4,1,0.9,2,1.01226472499911,1
271,272,2,2,4,2,1.25,2,1.01165216600202,1
272,251,2,1,4,1,0.875,1,1.10694012599924,0
273,278,2,2,4,2,0.875,1,1.1198588399966,0
274,245,2,1,4,1,0.875,2,1.26870569599851,1
275,264,2,2,4,2,1.025,1,1.03566208499979,0
276,303,2,3,4,1,1.5,2,1.02027711900155,1
277,250,2,2,4,2,1.05,1,1.14021536700238,0
278,248,2,2,4,2,1.15,2,1.04129301500143,1
279,261,2,1,4,1,1.125,2,1.1383806820013,1
280,276,2,2,4,2,1.05,2,1.11096314699898,1
281,280,2,2,4,2,0.95,1,1.13517894300094,0
282,317,2,4,4,1,0.5,1,1.06668881899895,0
283,277,2,1,4,1,0.7,1,1.01095615600207,0
284,306,2,3,4,2,1.5,2,1.0777330000019,1
285,243,2,1,4,1,0.75,1,1.04349061099856,0
286,242,2,2,4,2,1.15,2,1.00812495500213,1
287,309,2,3,4,1,1.5,2,1.13291534000018,1
288,241,2,1,4,1,0.8,1,1.05040161900251,0
289,308,2,3,4,2,1.5,2,1.0883238100032,1
290,296,2,2,4,2,1.025,1,1.08789260099729,0
291,313,2,4,4,1,0.5,1,1.22221663200253,0
292,293,2,1,4,1,1.01,2,1.0067865969977,1
293,301,2,3,4,1,1.5,2,1.01536663200022,1
294,275,2,1,4,1,0.875,1,1.01446620500064,0
295,252,2,2,4,2,1.025,2,1.01031243699981,1
296,314,2,4,4,2,0.5,1,1.04251684599876,0
297,315,2,4,4,1,0.5,1,1.11371652299931,0
298,298,2,2,4,2,0.95,1,1.12774605999948,0
299,285,2,1,4,1,0.9,1,1.08459418300117,0
300,299,2,1,4,1,0.9,2,1.00713947699842,1
301,295,2,1,4,1,0.99,2,1.15557628299939,1
302,320,2,4,4,2,0.5,1,1.27035294899906,0
303,259,2,1,4,1,0.875,1,1.24618507899868,0
304,255,2,1,4,1,0.925,2,1.29979036499935,1
305,271,2,1,4,1,0.875,1,1.19731467300153,0
306,269,2,1,4,1,0.875,1,1.26801785399948,0
307,279,2,1,4,1,0.925,1,1.25702295999872,0
308,289,2,1,4,1,0.95,1,1.14524203899782,0
309,302,2,3,4,2,1.5,2,1.19780925000305,1
310,292,2,2,4,2,1.125,2,1.15188782000041,1
311,291,2,1,4,1,1.075,2,1.14843211600237,1
312,311,2,4,4,1,0.5,1,1.12764886800142,0
313,244,2,2,4,2,0.99,1,1.02870336099659,0
314,283,2,1,4,1,1.05,2,1.16458369199972,1
315,267,2,1,4,1,0.99,2,1.27987824299998,1
316,263,2,1,4,1,0.975,2,1.14932008799951,1
317,310,2,3,4,2,1.5,2,1.00906143199973,1
318,286,2,2,4,2,1.01,1,1.10593290699762,0
319,281,2,1,4,1,0.95,2,1.02332225000282,1
320,262,2,2,4,2,1.075,1,1.13609856299809,0
